#FILENAME= 'h_alp-lyr_uvsum_1h_56227-56717_etc.dat' / name of file
#                                                   
#FILETYPE= 'ETC'                / type of data found in data file
#TELESCOP= 'HST'                / telescope used to acquire data
#INSTRUME= 'STIS'               / instrument used to acquire data
#EQUINOX =               2000.0 / equinox of celestial coord. system
#                                                   
#             / TARGET INFORMATION                  
#                                                   
#CATNAME = 'ALP-LYR'            / ASTRAL object name
#RA_TARG =           279.235762 / right ascension of target (deg) (J2000)
#DEC_TARG=            38.784779 / declination of target (deg) (J2000)
#                                                   
#WAVEMIN =                1150. / minimum wavelength (Angstroms)
#WAVEMAX =                3046. / maximum wavelength (Angstroms)
#                                                   
###################################################################
#                                                                 #
#   !!!!WARNING!!!!  This is a heavily processed spectrum         #
#   specifically for use with an Exposure Time Calculator.        #
# --------------------------------------------------------------  #
#   ** IT IS NOT SUITABLE FOR SCIENTIFIC ANALYSIS **              #
# --------------------------------------------------------------  #
#   See:                                                          #
#                                                                 #
# http://casa.colorado.edu/~ayres/StarCAT/ETC_spex_summary.txt  #
#                                                                 #
#   for cautions and limitations concerning the ETC spectra.      #
#                                                                 #
###################################################################
#                                                          
# Column 1:  WAVELENGTH    (Angstroms)              (F8.3) 
# Column 2:  FLUX          (erg/cm**2/s/Angstrom)  (E11.3)
#                                        
#NPTS    =                 9477 / Number of wavelength-flux entries
#                                                          
1150.400  1.533E-10
1150.600  2.215E-10
1150.800  1.932E-10
1151.000  2.721E-10
1151.200  2.902E-10
1151.400  4.002E-10
1151.600  2.939E-10
1151.800  2.534E-10
1152.000  2.130E-10
1152.200  3.143E-11
1152.400  1.863E-10
1152.600  3.434E-10
1152.800  3.263E-10
1153.000  2.578E-10
1153.200  2.107E-10
1153.400  1.824E-10
1153.600  2.900E-10
1153.800  3.083E-10
1154.000  1.987E-10
1154.200  2.036E-10
1154.400  3.277E-10
1154.600  3.645E-10
1154.800  2.745E-10
1155.000  2.306E-10
1155.200  2.872E-10
1155.400  2.271E-10
1155.600  2.269E-10
1155.800  1.806E-11
1156.000  7.091E-11
1156.200  1.754E-11
1156.400  1.730E-11
1156.600  9.170E-11
1156.800  1.225E-10
1157.000  9.405E-11
1157.200  6.887E-11
1157.400  5.719E-11
1157.600  5.730E-11
1157.800  1.615E-11
1158.000  1.602E-11
1158.200  1.591E-11
1158.400  1.578E-11
1158.600  6.917E-11
1158.800  5.187E-11
1159.000  1.541E-11
1159.200  1.349E-10
1159.400  1.501E-10
1159.600  1.904E-10
1159.800  1.674E-10
1160.000  2.063E-10
1160.200  1.760E-10
1160.400  8.650E-11
1160.600  1.356E-10
1160.800  1.085E-10
1161.000  2.072E-10
1161.200  1.315E-10
1161.400  8.929E-11
1161.600  1.502E-10
1161.800  1.749E-10
1162.000  1.902E-10
1162.200  2.216E-10
1162.400  2.148E-10
1162.600  1.710E-10
1162.800  1.986E-10
1163.000  2.090E-10
1163.200  1.716E-10
1163.400  1.879E-10
1163.600  2.016E-10
1163.800  1.691E-10
1164.000  1.216E-10
1164.200  1.042E-10
1164.400  1.471E-10
1164.600  1.401E-10
1164.800  1.324E-10
1165.000  1.417E-10
1165.200  1.230E-10
1165.400  1.358E-10
1165.600  9.735E-11
1165.800  9.331E-11
1166.000  8.753E-11
1166.200  6.896E-11
1166.400  7.033E-11
1166.600  5.321E-11
1166.800  4.484E-11
1167.000  3.726E-11
1167.200  3.873E-11
1167.400  4.406E-11
1167.600  1.119E-10
1167.800  1.382E-10
1168.000  1.269E-10
1168.200  1.145E-10
1168.400  5.514E-11
1168.600  1.237E-10
1168.800  1.528E-10
1169.000  1.284E-10
1169.200  9.889E-11
1169.400  9.810E-11
1169.600  8.128E-11
1169.800  4.729E-11
1170.000  4.168E-11
1170.200  6.945E-12
1170.400  2.234E-11
1170.600  6.799E-12
1170.800  2.589E-11
1171.000  4.370E-11
1171.200  5.044E-11
1171.400  4.857E-11
1171.600  4.861E-11
1171.800  7.253E-11
1172.000  5.606E-11
1172.200  4.757E-11
1172.400  4.543E-11
1172.600  2.686E-11
1172.800  3.121E-11
1173.000  5.600E-11
1173.200  6.953E-11
1173.400  1.050E-10
1173.600  1.050E-10
1173.800  9.729E-11
1174.000  7.715E-11
1174.200  8.345E-11
1174.400  7.998E-11
1174.600  7.698E-11
1174.800  5.920E-11
1175.000  5.955E-11
1175.200  3.992E-11
1175.400  4.143E-11
1175.600  2.959E-11
1175.800  3.193E-11
1176.000  2.680E-11
1176.200  2.958E-11
1176.400  3.194E-11
1176.600  5.351E-11
1176.800  6.894E-11
1177.000  6.504E-11
1177.200  6.399E-11
1177.400  5.882E-11
1177.600  5.366E-11
1177.800  4.614E-11
1178.000  3.117E-11
1178.200  4.675E-11
1178.400  4.503E-11
1178.600  4.691E-11
1178.800  4.987E-11
1179.000  6.175E-11
1179.200  4.814E-11
1179.400  5.573E-11
1179.600  5.085E-11
1179.800  4.992E-11
1180.000  5.346E-11
1180.200  5.093E-11
1180.400  5.323E-11
1180.600  5.241E-11
1180.800  4.274E-11
1181.000  4.324E-11
1181.200  4.369E-11
1181.400  4.411E-11
1181.600  3.312E-11
1181.800  3.614E-11
1182.000  4.507E-11
1182.200  3.978E-11
1182.400  4.064E-11
1182.600  3.797E-11
1182.800  3.910E-11
1183.000  3.755E-11
1183.200  4.112E-11
1183.400  3.416E-11
1183.600  3.421E-11
1183.800  3.394E-11
1184.000  3.244E-11
1184.200  3.218E-11
1184.400  3.512E-11
1184.600  2.972E-11
1184.800  3.504E-11
1185.000  2.889E-11
1185.200  2.808E-11
1185.400  2.819E-11
1185.600  2.819E-11
1185.800  2.556E-11
1186.000  2.801E-11
1186.200  2.804E-11
1186.400  2.596E-11
1186.600  2.340E-11
1186.800  3.009E-11
1187.000  2.597E-11
1187.200  2.554E-11
1187.400  2.490E-11
1187.600  2.196E-11
1187.800  2.569E-11
1188.000  2.460E-11
1188.200  2.441E-11
1188.400  2.256E-11
1188.600  2.244E-11
1188.800  1.811E-11
1189.000  1.606E-11
1189.200  1.872E-11
1189.400  1.813E-11
1189.600  1.654E-11
1189.800  2.199E-11
1190.000  1.975E-11
1190.200  1.772E-11
1190.400  1.629E-11
1190.600  1.625E-11
1190.800  1.893E-11
1191.000  1.565E-11
1191.200  1.826E-11
1191.400  1.915E-11
1191.600  1.788E-11
1191.800  1.722E-11
1192.000  2.239E-11
1192.200  1.971E-11
1192.400  1.679E-11
1192.600  1.629E-11
1192.800  1.866E-11
1193.000  1.480E-11
1193.200  1.127E-11
1193.400  1.440E-11
1193.600  1.639E-11
1193.800  1.902E-11
1194.000  1.423E-11
1194.200  1.356E-11
1194.400  1.343E-11
1194.600  1.335E-11
1194.800  2.065E-11
1195.000  1.884E-11
1195.200  1.592E-11
1195.400  1.882E-11
1195.600  1.686E-11
1195.800  1.484E-11
1196.000  1.431E-11
1196.200  1.841E-11
1196.400  1.604E-11
1196.600  1.389E-11
1196.800  1.646E-11
1197.000  1.853E-11
1197.200  1.796E-11
1197.400  1.570E-11
1197.600  1.716E-11
1197.800  1.569E-11
1198.000  1.693E-11
1198.200  1.701E-11
1198.400  1.921E-11
1198.600  1.529E-11
1198.800  1.676E-11
1199.000  1.596E-11
1199.200  1.596E-11
1199.400  1.334E-11
1199.600  1.321E-11
1199.800  1.626E-11
1200.000  1.221E-11
1200.200  8.333E-12
1200.400  1.270E-11
1200.600  1.281E-11
1200.800  1.820E-11
1201.000  1.621E-11
1201.200  1.425E-11
1201.400  1.545E-11
1201.600  1.607E-11
1201.800  1.501E-11
1202.000  1.348E-11
1202.200  1.220E-11
1202.400  1.454E-11
1202.600  1.610E-11
1202.800  1.183E-11
1203.000  1.149E-11
1203.200  1.205E-11
1203.400  1.095E-11
1203.600  1.132E-11
1203.800  1.302E-11
1204.000  1.394E-11
1204.200  1.647E-11
1204.400  1.333E-11
1204.600  1.305E-11
1204.800  9.392E-12
1205.000  1.423E-11
1205.200  9.983E-12
1205.400  1.011E-11
1205.600  7.475E-12
1205.800  1.067E-11
1206.000  1.148E-11
1206.200  9.842E-12
1206.400  7.923E-12
1206.600  9.323E-12
1206.800  8.190E-12
1207.000  9.556E-12
1207.200  1.051E-11
1207.400  7.241E-12
1207.600  7.745E-12
1207.800  6.480E-12
1208.000  8.988E-12
1208.200  9.391E-12
1208.400  1.196E-11
1208.600  9.790E-12
1208.800  1.240E-11
1209.000  9.701E-12
1209.200  9.723E-12
1209.400  9.550E-12
1209.600  8.716E-12
1209.800  1.000E-11
1210.000  7.177E-12
1210.200  6.482E-12
1210.400  6.904E-12
1210.600  5.930E-12
1210.800  7.837E-12
1211.000  7.215E-12
1211.200  6.305E-12
1211.400  6.321E-12
1211.600  7.869E-12
1211.800  5.876E-12
1212.000  8.200E-12
1212.200  8.880E-12
1212.400  7.691E-12
1212.600  6.926E-12
1212.800  8.281E-12
1213.000  8.216E-12
1213.200  1.846E-12
1213.400  6.453E-12
1213.600  8.382E-12
1213.800  1.828E-12
1214.000  6.136E-12
1214.200  9.007E-12
1214.400  8.053E-12
1214.600  6.670E-12
1214.800  5.203E-12
1215.000  6.259E-12
1215.200  5.513E-12
1215.400  1.783E-12
1215.600  1.778E-12
1215.800  1.772E-12
1216.000  1.767E-12
1216.200  1.762E-12
1216.400  6.628E-12
1216.600  6.116E-12
1216.800  1.748E-12
1217.000  6.944E-12
1217.200  1.740E-12
1217.400  6.602E-12
1217.600  1.733E-12
1217.800  5.848E-12
1218.000  5.318E-12
1218.200  4.997E-12
1218.400  5.988E-12
1218.600  5.450E-12
1218.800  6.563E-12
1219.000  5.227E-12
1219.200  1.714E-12
1219.400  7.076E-12
1219.600  9.467E-12
1219.800  7.602E-12
1220.000  6.808E-12
1220.200  6.889E-12
1220.400  1.707E-12
1220.600  5.799E-12
1220.800  6.632E-12
1221.000  7.865E-12
1221.200  7.263E-12
1221.400  6.976E-12
1221.600  6.276E-12
1221.800  6.749E-12
1222.000  1.094E-11
1222.200  7.871E-12
1222.400  7.667E-12
1222.600  8.422E-12
1222.800  8.678E-12
1223.000  9.246E-12
1223.200  9.481E-12
1223.400  7.067E-12
1223.600  8.372E-12
1223.800  9.741E-12
1224.000  1.109E-11
1224.200  9.684E-12
1224.400  9.258E-12
1224.600  1.126E-11
1224.800  1.033E-11
1225.000  9.590E-12
1225.200  9.833E-12
1225.400  1.006E-11
1225.600  1.095E-11
1225.800  1.013E-11
1226.000  1.072E-11
1226.200  9.868E-12
1226.400  1.137E-11
1226.600  1.021E-11
1226.800  1.140E-11
1227.000  1.071E-11
1227.200  1.362E-11
1227.400  1.257E-11
1227.600  1.138E-11
1227.800  1.219E-11
1228.000  1.348E-11
1228.200  1.364E-11
1228.400  1.489E-11
1228.600  1.406E-11
1228.800  1.453E-11
1229.000  1.397E-11
1229.200  1.428E-11
1229.400  1.596E-11
1229.600  1.774E-11
1229.800  1.681E-11
1230.000  1.505E-11
1230.200  1.613E-11
1230.400  1.624E-11
1230.600  1.805E-11
1230.800  1.543E-11
1231.000  1.646E-11
1231.200  1.778E-11
1231.400  1.890E-11
1231.600  1.780E-11
1231.800  1.577E-11
1232.000  1.875E-11
1232.200  1.794E-11
1232.400  1.858E-11
1232.600  1.580E-11
1232.800  1.824E-11
1233.000  1.714E-11
1233.200  1.844E-11
1233.400  1.771E-11
1233.600  2.058E-11
1233.800  2.113E-11
1234.000  1.737E-11
1234.200  1.989E-11
1234.400  1.943E-11
1234.600  2.624E-11
1234.800  2.351E-11
1235.000  2.557E-11
1235.200  2.513E-11
1235.400  2.760E-11
1235.600  2.989E-11
1235.800  2.686E-11
1236.000  2.486E-11
1236.200  2.536E-11
1236.400  3.221E-11
1236.600  2.640E-11
1236.800  2.670E-11
1237.000  2.823E-11
1237.200  3.871E-11
1237.400  3.188E-11
1237.600  3.149E-11
1237.800  3.154E-11
1238.000  2.997E-11
1238.200  3.355E-11
1238.400  3.237E-11
1238.600  3.323E-11
1238.800  2.863E-11
1239.000  2.962E-11
1239.200  3.520E-11
1239.400  2.837E-11
1239.600  3.095E-11
1239.800  4.088E-11
1240.000  2.840E-11
1240.200  2.809E-11
1240.400  2.796E-11
1240.600  3.241E-11
1240.800  3.869E-11
1241.000  4.719E-11
1241.200  4.608E-11
1241.400  3.524E-11
1241.600  4.073E-11
1241.800  3.831E-11
1242.000  4.314E-11
1242.200  3.921E-11
1242.400  3.828E-11
1242.600  3.653E-11
1242.800  4.068E-11
1243.000  4.086E-11
1243.200  2.314E-11
1243.400  4.837E-11
1243.600  4.964E-11
1243.800  4.414E-11
1244.000  4.810E-11
1244.200  5.022E-11
1244.400  4.880E-11
1244.600  5.000E-11
1244.800  5.373E-11
1245.000  5.009E-11
1245.200  5.659E-11
1245.400  6.412E-11
1245.600  5.684E-11
1245.800  5.143E-11
1246.000  6.779E-11
1246.200  7.626E-11
1246.400  7.686E-11
1246.600  7.613E-11
1246.800  5.706E-11
1247.000  7.065E-11
1247.200  7.979E-11
1247.400  8.607E-11
1247.600  8.644E-11
1247.800  6.607E-11
1248.000  8.424E-11
1248.200  1.163E-10
1248.400  1.083E-10
1248.600  1.077E-10
1248.800  1.051E-10
1249.000  9.579E-11
1249.200  9.733E-11
1249.400  8.916E-11
1249.600  1.379E-10
1249.800  1.466E-10
1250.000  1.559E-10
1250.200  1.171E-10
1250.400  8.083E-11
1250.600  1.738E-10
1250.800  1.687E-10
1251.000  1.382E-10
1251.200  1.048E-10
1251.400  2.199E-10
1251.600  2.549E-10
1251.800  2.637E-10
1252.000  2.255E-10
1252.200  1.414E-10
1252.400  2.404E-10
1252.600  2.896E-10
1252.800  3.000E-10
1253.000  3.038E-10
1253.200  1.990E-10
1253.400  5.316E-11
1253.600  1.461E-10
1253.800  3.214E-10
1254.000  3.677E-10
1254.200  3.516E-10
1254.400  2.030E-10
1254.600  3.075E-10
1254.800  3.716E-10
1255.000  3.856E-10
1255.200  3.460E-10
1255.400  4.460E-10
1255.600  4.995E-10
1255.800  4.987E-10
1256.000  4.234E-10
1256.200  2.227E-10
1256.400  8.499E-11
1256.600  2.198E-10
1256.800  4.283E-10
1257.000  4.929E-10
1257.200  4.888E-10
1257.400  3.758E-10
1257.600  3.378E-10
1257.800  4.728E-10
1258.000  5.730E-10
1258.200  6.131E-10
1258.400  5.315E-10
1258.600  3.899E-10
1258.800  2.071E-10
1259.000  4.197E-10
1259.200  5.751E-10
1259.400  5.659E-10
1259.600  4.728E-10
1259.800  4.042E-10
1260.000  2.017E-10
1260.200  7.692E-11
1260.400  2.185E-11
1260.600  3.312E-11
1260.800  8.771E-11
1261.000  1.021E-10
1261.200  4.152E-10
1261.400  2.606E-10
1261.600  1.221E-10
1261.800  4.248E-10
1262.000  4.657E-10
1262.200  7.433E-10
1262.400  9.534E-10
1262.600  9.798E-10
1262.800  8.261E-10
1263.000  8.486E-10
1263.200  8.722E-10
1263.400  8.656E-10
1263.600  7.656E-10
1263.800  7.059E-10
1264.000  6.006E-10
1264.200  3.570E-10
1264.400  1.529E-10
1264.600  2.386E-11
1264.800  3.047E-12
1265.000  5.543E-11
1265.200  2.405E-10
1265.400  5.050E-10
1265.600  5.301E-10
1265.800  6.485E-10
1266.000  5.257E-10
1266.200  1.406E-10
1266.400  7.658E-11
1266.600  4.632E-10
1266.800  9.202E-10
1267.000  1.082E-09
1267.200  1.082E-09
1267.400  7.452E-10
1267.600  6.695E-10
1267.800  1.310E-09
1268.000  1.267E-09
1268.200  1.597E-09
1268.400  1.642E-09
1268.600  1.609E-09
1268.800  1.661E-09
1269.000  1.199E-09
1269.200  1.451E-09
1269.400  1.790E-09
1269.600  1.695E-09
1269.800  1.622E-09
1270.000  1.702E-09
1270.200  1.781E-09
1270.400  1.848E-09
1270.600  1.838E-09
1270.800  1.805E-09
1271.000  1.900E-09
1271.200  1.654E-09
1271.400  1.899E-09
1271.600  1.926E-09
1271.800  1.879E-09
1272.000  1.775E-09
1272.200  1.976E-09
1272.400  2.093E-09
1272.600  1.519E-09
1272.800  2.182E-09
1273.000  2.068E-09
1273.200  2.026E-09
1273.400  2.081E-09
1273.600  2.184E-09
1273.800  2.090E-09
1274.000  1.954E-09
1274.200  1.639E-09
1274.400  1.459E-09
1274.600  8.609E-10
1274.800  9.998E-11
1275.000  1.048E-10
1275.200  3.887E-10
1275.400  1.408E-09
1275.600  1.034E-09
1275.800  1.547E-09
1276.000  1.601E-09
1276.200  1.167E-09
1276.400  1.455E-09
1276.600  1.727E-09
1276.800  1.492E-09
1277.000  1.254E-09
1277.200  4.779E-10
1277.400  6.437E-10
1277.600  1.713E-10
1277.800  1.250E-09
1278.000  2.145E-09
1278.200  2.375E-09
1278.400  2.357E-09
1278.600  2.268E-09
1278.800  2.331E-09
1279.000  2.192E-09
1279.200  2.208E-09
1279.400  2.273E-09
1279.600  2.369E-09
1279.800  2.115E-09
1280.000  1.713E-09
1280.200  1.075E-09
1280.400  9.756E-10
1280.600  1.867E-09
1280.800  1.583E-09
1281.000  2.634E-09
1281.200  2.732E-09
1281.400  2.644E-09
1281.600  2.802E-09
1281.800  2.671E-09
1282.000  2.611E-09
1282.200  2.699E-09
1282.400  2.645E-09
1282.600  2.684E-09
1282.800  2.785E-09
1283.000  2.640E-09
1283.200  2.936E-09
1283.400  2.739E-09
1283.600  2.887E-09
1283.800  2.846E-09
1284.000  2.736E-09
1284.200  2.817E-09
1284.400  2.888E-09
1284.600  3.107E-09
1284.800  2.996E-09
1285.000  3.083E-09
1285.200  3.151E-09
1285.400  3.007E-09
1285.600  2.987E-09
1285.800  2.836E-09
1286.000  2.929E-09
1286.200  2.950E-09
1286.400  2.505E-09
1286.600  2.786E-09
1286.800  2.829E-09
1287.000  2.673E-09
1287.200  2.005E-09
1287.400  2.664E-09
1287.600  2.216E-09
1287.800  1.782E-09
1288.000  4.235E-10
1288.200  2.924E-10
1288.400  2.398E-10
1288.600  6.020E-10
1288.800  1.593E-09
1289.000  2.286E-09
1289.200  2.769E-09
1289.400  2.684E-09
1289.600  2.915E-09
1289.800  2.835E-09
1290.000  1.321E-09
1290.200  2.936E-09
1290.400  3.125E-09
1290.600  3.225E-09
1290.800  2.555E-09
1291.000  3.418E-09
1291.200  3.202E-09
1291.400  3.018E-09
1291.600  3.178E-09
1291.800  3.533E-09
1292.000  3.554E-09
1292.200  3.513E-09
1292.400  3.111E-09
1292.600  3.542E-09
1292.800  3.482E-09
1293.000  3.520E-09
1293.200  3.402E-09
1293.400  3.685E-09
1293.600  3.017E-09
1293.800  3.621E-09
1294.000  3.877E-09
1294.200  3.877E-09
1294.400  3.650E-09
1294.600  2.367E-09
1294.800  3.324E-09
1295.000  3.654E-09
1295.200  3.747E-09
1295.400  3.651E-09
1295.600  3.134E-09
1295.800  3.414E-09
1296.000  3.217E-09
1296.200  3.256E-09
1296.400  3.682E-09
1296.600  3.643E-09
1296.800  3.830E-09
1297.000  3.859E-09
1297.200  3.888E-09
1297.400  3.969E-09
1297.600  3.964E-09
1297.800  4.054E-09
1298.000  3.906E-09
1298.200  4.024E-09
1298.400  3.977E-09
1298.600  3.635E-09
1298.800  2.222E-09
1299.000  3.802E-09
1299.200  3.810E-09
1299.400  3.138E-09
1299.600  4.014E-09
1299.800  4.043E-09
1300.000  4.116E-09
1300.200  4.200E-09
1300.400  4.168E-09
1300.600  3.882E-09
1300.800  3.677E-09
1301.000  3.273E-09
1301.200  3.538E-09
1301.400  3.643E-09
1301.600  2.540E-09
1301.800  2.161E-09
1302.000  4.238E-10
1302.200  2.097E-10
1302.400  2.067E-09
1302.600  2.633E-09
1302.800  3.033E-09
1303.000  3.029E-09
1303.200  2.773E-09
1303.400  3.500E-09
1303.600  3.873E-09
1303.800  3.849E-09
1304.000  3.489E-09
1304.200  2.911E-09
1304.400  1.105E-09
1304.600  1.105E-09
1304.800  8.283E-11
1305.000  1.207E-09
1305.200  1.453E-09
1305.400  1.106E-09
1305.600  4.273E-10
1305.800  6.020E-10
1306.000  7.863E-10
1306.200  3.026E-09
1306.400  3.229E-09
1306.600  3.128E-09
1306.800  3.035E-09
1307.000  4.167E-09
1307.200  3.775E-09
1307.400  4.295E-09
1307.600  4.230E-09
1307.800  3.600E-09
1308.000  3.764E-09
1308.200  3.591E-09
1308.400  3.261E-09
1308.600  2.996E-09
1308.800  2.581E-09
1309.000  1.531E-09
1309.200  4.552E-10
1309.400  2.508E-10
1309.600  1.188E-09
1309.800  2.408E-09
1310.000  3.349E-09
1310.200  3.285E-09
1310.400  3.318E-09
1310.600  1.020E-09
1310.800  1.686E-09
1311.000  1.331E-09
1311.200  1.328E-09
1311.400  1.321E-09
1311.600  2.730E-09
1311.800  2.132E-09
1312.000  3.639E-09
1312.200  3.772E-09
1312.400  4.344E-09
1312.600  4.315E-09
1312.800  4.645E-09
1313.000  4.638E-09
1313.200  3.552E-09
1313.400  3.156E-09
1313.600  3.701E-09
1313.800  4.686E-09
1314.000  5.014E-09
1314.200  5.025E-09
1314.400  5.062E-09
1314.600  5.065E-09
1314.800  5.160E-09
1315.000  4.867E-09
1315.200  4.766E-09
1315.400  5.079E-09
1315.600  5.172E-09
1315.800  4.698E-09
1316.000  3.687E-09
1316.200  3.878E-09
1316.400  4.516E-09
1316.600  5.194E-09
1316.800  5.248E-09
1317.000  4.774E-09
1317.200  4.668E-09
1317.400  4.980E-09
1317.600  5.300E-09
1317.800  5.101E-09
1318.000  4.766E-09
1318.200  5.064E-09
1318.400  5.394E-09
1318.600  4.595E-09
1318.800  3.979E-09
1319.000  3.656E-09
1319.200  5.215E-09
1319.400  5.384E-09
1319.600  4.645E-09
1319.800  5.258E-09
1320.000  5.175E-09
1320.200  5.104E-09
1320.400  5.000E-09
1320.600  4.557E-09
1320.800  4.947E-09
1321.000  5.116E-09
1321.200  4.826E-09
1321.400  5.500E-09
1321.600  5.466E-09
1321.800  5.161E-09
1322.000  5.191E-09
1322.200  4.986E-09
1322.400  5.249E-09
1322.600  5.185E-09
1322.800  5.115E-09
1323.000  5.143E-09
1323.200  4.652E-09
1323.400  3.705E-09
1323.600  4.115E-09
1323.800  3.196E-09
1324.000  5.017E-09
1324.200  4.390E-09
1324.400  4.266E-09
1324.600  4.889E-09
1324.800  4.717E-09
1325.000  5.092E-09
1325.200  5.200E-09
1325.400  5.157E-09
1325.600  4.503E-09
1325.800  5.231E-09
1326.000  5.346E-09
1326.200  5.340E-09
1326.400  5.368E-09
1326.600  4.811E-09
1326.800  5.297E-09
1327.000  5.020E-09
1327.200  5.152E-09
1327.400  5.293E-09
1327.600  5.078E-09
1327.800  4.515E-09
1328.000  4.872E-09
1328.200  5.070E-09
1328.400  5.044E-09
1328.600  5.180E-09
1328.800  3.533E-09
1329.000  3.426E-09
1329.200  3.960E-09
1329.400  4.298E-09
1329.600  3.695E-09
1329.800  4.377E-09
1330.000  5.278E-09
1330.200  5.274E-09
1330.400  5.125E-09
1330.600  5.300E-09
1330.800  4.704E-09
1331.000  4.860E-09
1331.200  4.878E-09
1331.400  4.606E-09
1331.600  4.933E-09
1331.800  5.248E-09
1332.000  4.262E-09
1332.200  4.323E-09
1332.400  5.138E-09
1332.600  5.124E-09
1332.800  5.016E-09
1333.000  4.948E-09
1333.200  5.029E-09
1333.400  4.809E-09
1333.600  4.559E-09
1333.800  3.561E-09
1334.000  3.413E-09
1334.200  2.327E-09
1334.400  5.464E-10
1334.600  7.112E-10
1334.800  2.140E-09
1335.000  2.203E-09
1335.200  1.258E-09
1335.400  9.750E-10
1335.600  1.293E-10
1335.800  6.886E-10
1336.000  1.876E-09
1336.200  2.769E-09
1336.400  3.910E-09
1336.600  3.983E-09
1336.800  4.433E-09
1337.000  4.842E-09
1337.200  5.058E-09
1337.400  4.910E-09
1337.600  5.193E-09
1337.800  5.435E-09
1338.000  5.382E-09
1338.200  5.171E-09
1338.400  5.468E-09
1338.600  5.856E-09
1338.800  5.681E-09
1339.000  5.805E-09
1339.200  5.826E-09
1339.400  5.883E-09
1339.600  5.546E-09
1339.800  5.394E-09
1340.000  5.450E-09
1340.200  5.586E-09
1340.400  5.926E-09
1340.600  5.716E-09
1340.800  5.449E-09
1341.000  4.977E-09
1341.200  5.845E-09
1341.400  5.822E-09
1341.600  5.906E-09
1341.800  5.211E-09
1342.000  5.074E-09
1342.200  5.544E-09
1342.400  5.476E-09
1342.600  5.974E-09
1342.800  6.073E-09
1343.000  6.046E-09
1343.200  5.948E-09
1343.400  5.943E-09
1343.600  5.979E-09
1343.800  5.947E-09
1344.000  5.677E-09
1344.200  5.677E-09
1344.400  5.953E-09
1344.600  5.695E-09
1344.800  5.723E-09
1345.000  5.201E-09
1345.200  5.076E-09
1345.400  5.531E-09
1345.600  5.627E-09
1345.800  5.239E-09
1346.000  5.786E-09
1346.200  5.904E-09
1346.400  5.815E-09
1346.600  5.838E-09
1346.800  5.284E-09
1347.000  4.988E-09
1347.200  4.359E-09
1347.400  5.823E-09
1347.600  5.884E-09
1347.800  5.703E-09
1348.000  5.662E-09
1348.200  5.686E-09
1348.400  5.019E-09
1348.600  5.026E-09
1348.800  5.878E-09
1349.000  5.471E-09
1349.200  5.603E-09
1349.400  5.041E-09
1349.600  5.479E-09
1349.800  5.964E-09
1350.000  5.412E-09
1350.200  5.645E-09
1350.400  5.736E-09
1350.600  5.500E-09
1350.800  5.927E-09
1351.000  5.890E-09
1351.200  5.577E-09
1351.400  5.522E-09
1351.600  5.586E-09
1351.800  5.696E-09
1352.000  5.900E-09
1352.200  5.762E-09
1352.400  5.459E-09
1352.600  4.271E-09
1352.800  4.929E-09
1353.000  5.860E-09
1353.200  5.895E-09
1353.400  5.654E-09
1353.600  5.152E-09
1353.800  5.421E-09
1354.000  4.109E-09
1354.200  2.394E-09
1354.400  4.511E-09
1354.600  4.510E-09
1354.800  5.684E-09
1355.000  5.712E-09
1355.200  5.661E-09
1355.400  4.760E-09
1355.600  2.693E-09
1355.800  9.877E-10
1356.000  3.607E-09
1356.200  4.351E-09
1356.400  4.642E-09
1356.600  5.715E-09
1356.800  5.312E-09
1357.000  2.748E-09
1357.200  4.733E-09
1357.400  5.928E-09
1357.600  5.617E-09
1357.800  5.822E-09
1358.000  5.874E-09
1358.200  6.296E-09
1358.400  6.378E-09
1358.600  5.215E-09
1358.800  4.525E-09
1359.000  5.578E-09
1359.200  5.578E-09
1359.400  5.184E-09
1359.600  6.259E-09
1359.800  6.008E-09
1360.000  6.389E-09
1360.200  6.345E-09
1360.400  5.851E-09
1360.600  5.582E-09
1360.800  5.740E-09
1361.000  5.873E-09
1361.200  6.009E-09
1361.400  5.750E-09
1361.600  6.451E-09
1361.800  5.923E-09
1362.000  6.059E-09
1362.200  5.759E-09
1362.400  5.530E-09
1362.600  6.414E-09
1362.800  5.527E-09
1363.000  5.628E-09
1363.200  6.020E-09
1363.400  5.216E-09
1363.600  5.194E-09
1363.800  5.770E-09
1364.000  5.302E-09
1364.200  4.602E-09
1364.400  4.413E-09
1364.600  5.177E-09
1364.800  6.421E-09
1365.000  6.148E-09
1365.200  6.525E-09
1365.400  6.503E-09
1365.600  4.626E-09
1365.800  5.965E-09
1366.000  5.814E-09
1366.200  5.706E-09
1366.400  5.697E-09
1366.600  5.630E-09
1366.800  6.397E-09
1367.000  6.370E-09
1367.200  4.430E-09
1367.400  6.020E-09
1367.600  4.535E-09
1367.800  6.358E-09
1368.000  4.596E-09
1368.200  4.959E-09
1368.400  3.494E-09
1368.600  5.191E-09
1368.800  6.154E-09
1369.000  6.485E-09
1369.200  5.911E-09
1369.400  4.439E-09
1369.600  3.868E-09
1369.800  6.075E-09
1370.000  6.071E-09
1370.200  6.213E-09
1370.400  6.129E-09
1370.600  6.024E-09
1370.800  6.443E-09
1371.000  5.752E-09
1371.200  5.580E-09
1371.400  6.131E-09
1371.600  6.244E-09
1371.800  6.520E-09
1372.000  5.906E-09
1372.200  4.879E-09
1372.400  5.835E-09
1372.600  6.011E-09
1372.800  6.190E-09
1373.000  5.566E-09
1373.200  5.911E-09
1373.400  6.315E-09
1373.600  6.324E-09
1373.800  5.898E-09
1374.000  5.713E-09
1374.200  6.269E-09
1374.400  6.514E-09
1374.600  6.219E-09
1374.800  4.851E-09
1375.000  5.621E-09
1375.200  5.864E-09
1375.400  5.877E-09
1375.600  5.936E-09
1375.800  5.773E-09
1376.000  6.534E-09
1376.200  6.381E-09
1376.400  6.387E-09
1376.600  6.253E-09
1376.800  5.536E-09
1377.000  6.005E-09
1377.200  6.047E-09
1377.400  5.996E-09
1377.600  6.050E-09
1377.800  6.404E-09
1378.000  6.140E-09
1378.200  6.149E-09
1378.400  6.270E-09
1378.600  6.212E-09
1378.800  6.183E-09
1379.000  6.455E-09
1379.200  6.130E-09
1379.400  5.161E-09
1379.600  5.472E-09
1379.800  5.901E-09
1380.000  5.944E-09
1380.200  6.333E-09
1380.400  6.134E-09
1380.600  6.151E-09
1380.800  6.289E-09
1381.000  6.198E-09
1381.200  5.011E-09
1381.400  5.071E-09
1381.600  4.742E-09
1381.800  5.363E-09
1382.000  5.644E-09
1382.200  5.389E-09
1382.400  5.419E-09
1382.600  4.241E-09
1382.800  5.885E-09
1383.000  5.906E-09
1383.200  6.114E-09
1383.400  6.304E-09
1383.600  4.930E-09
1383.800  6.324E-09
1384.000  6.274E-09
1384.200  5.780E-09
1384.400  6.191E-09
1384.600  5.645E-09
1384.800  6.281E-09
1385.000  6.393E-09
1385.200  6.195E-09
1385.400  5.418E-09
1385.600  5.950E-09
1385.800  5.839E-09
1386.000  5.920E-09
1386.200  5.694E-09
1386.400  5.861E-09
1386.600  6.060E-09
1386.800  5.990E-09
1387.000  5.848E-09
1387.200  6.012E-09
1387.400  5.758E-09
1387.600  5.863E-09
1387.800  5.609E-09
1388.000  5.717E-09
1388.200  5.063E-09
1388.400  4.290E-09
1388.600  5.935E-09
1388.800  6.003E-09
1389.000  6.073E-09
1389.200  6.060E-09
1389.400  5.952E-09
1389.600  5.353E-09
1389.800  5.819E-09
1390.000  5.757E-09
1390.200  5.862E-09
1390.400  6.001E-09
1390.600  5.703E-09
1390.800  5.887E-09
1391.000  5.949E-09
1391.200  5.904E-09
1391.400  6.036E-09
1391.600  6.031E-09
1391.800  5.436E-09
1392.000  5.098E-09
1392.200  5.684E-09
1392.400  5.776E-09
1392.600  5.741E-09
1392.800  5.878E-09
1393.000  5.911E-09
1393.200  5.044E-09
1393.400  4.908E-09
1393.600  5.430E-09
1393.800  5.191E-09
1394.000  6.067E-09
1394.200  6.008E-09
1394.400  5.948E-09
1394.600  5.440E-09
1394.800  6.074E-09
1395.000  5.918E-09
1395.200  5.872E-09
1395.400  5.923E-09
1395.600  5.916E-09
1395.800  5.924E-09
1396.000  5.968E-09
1396.200  5.588E-09
1396.400  5.242E-09
1396.600  5.576E-09
1396.800  5.788E-09
1397.000  5.748E-09
1397.200  5.751E-09
1397.400  4.976E-09
1397.600  5.796E-09
1397.800  5.672E-09
1398.000  5.976E-09
1398.200  5.715E-09
1398.400  5.278E-09
1398.600  5.306E-09
1398.800  3.935E-09
1399.000  5.882E-09
1399.200  5.891E-09
1399.400  5.782E-09
1399.600  5.901E-09
1399.800  5.772E-09
1400.000  5.336E-09
1400.200  5.569E-09
1400.400  5.562E-09
1400.600  5.308E-09
1400.800  6.123E-09
1401.000  6.107E-09
1401.200  6.129E-09
1401.400  6.109E-09
1401.600  5.971E-09
1401.800  5.425E-09
1402.000  6.174E-09
1402.200  6.428E-09
1402.400  6.164E-09
1402.600  5.995E-09
1402.800  5.958E-09
1403.000  5.962E-09
1403.200  5.498E-09
1403.400  6.167E-09
1403.600  6.064E-09
1403.800  5.366E-09
1404.000  5.244E-09
1404.200  6.059E-09
1404.400  5.699E-09
1404.600  5.434E-09
1404.800  5.969E-09
1405.000  6.641E-09
1405.200  6.603E-09
1405.400  6.355E-09
1405.600  5.719E-09
1405.800  6.427E-09
1406.000  6.678E-09
1406.200  6.416E-09
1406.400  6.678E-09
1406.600  6.895E-09
1406.800  6.371E-09
1407.000  6.648E-09
1407.200  6.541E-09
1407.400  6.282E-09
1407.600  6.963E-09
1407.800  6.914E-09
1408.000  6.522E-09
1408.200  6.804E-09
1408.400  5.771E-09
1408.600  6.157E-09
1408.800  6.037E-09
1409.000  5.111E-09
1409.200  5.940E-09
1409.400  6.085E-09
1409.600  6.677E-09
1409.800  6.235E-09
1410.000  5.305E-09
1410.200  5.693E-09
1410.400  6.045E-09
1410.600  5.543E-09
1410.800  6.467E-09
1411.000  6.461E-09
1411.200  7.012E-09
1411.400  5.365E-09
1411.600  7.000E-09
1411.800  6.707E-09
1412.000  6.753E-09
1412.200  7.275E-09
1412.400  7.332E-09
1412.600  6.456E-09
1412.800  6.339E-09
1413.000  7.300E-09
1413.200  7.210E-09
1413.400  7.052E-09
1413.600  6.542E-09
1413.800  7.344E-09
1414.000  7.075E-09
1414.200  7.073E-09
1414.400  6.395E-09
1414.600  5.820E-09
1414.800  6.329E-09
1415.000  6.067E-09
1415.200  6.326E-09
1415.400  6.503E-09
1415.600  4.969E-09
1415.800  5.519E-09
1416.000  7.340E-09
1416.200  7.312E-09
1416.400  7.386E-09
1416.600  6.677E-09
1416.800  6.675E-09
1417.000  6.602E-09
1417.200  7.154E-09
1417.400  7.041E-09
1417.600  7.070E-09
1417.800  7.237E-09
1418.000  6.877E-09
1418.200  6.483E-09
1418.400  7.246E-09
1418.600  6.709E-09
1418.800  6.678E-09
1419.000  6.821E-09
1419.200  6.574E-09
1419.400  6.755E-09
1419.600  6.533E-09
1419.800  6.915E-09
1420.000  6.857E-09
1420.200  7.055E-09
1420.400  5.994E-09
1420.600  6.159E-09
1420.800  6.198E-09
1421.000  7.164E-09
1421.200  7.204E-09
1421.400  6.916E-09
1421.600  6.916E-09
1421.800  7.546E-09
1422.000  7.455E-09
1422.200  7.163E-09
1422.400  5.886E-09
1422.600  7.303E-09
1422.800  7.205E-09
1423.000  6.651E-09
1423.200  7.177E-09
1423.400  7.457E-09
1423.600  7.455E-09
1423.800  7.065E-09
1424.000  4.375E-09
1424.200  6.003E-09
1424.400  6.650E-09
1424.600  5.023E-09
1424.800  6.380E-09
1425.000  4.166E-09
1425.200  6.415E-09
1425.400  7.085E-09
1425.600  7.529E-09
1425.800  7.749E-09
1426.000  7.692E-09
1426.200  7.409E-09
1426.400  7.423E-09
1426.600  7.222E-09
1426.800  7.627E-09
1427.000  5.947E-09
1427.200  7.161E-09
1427.400  7.569E-09
1427.600  7.579E-09
1427.800  7.172E-09
1428.000  7.528E-09
1428.200  7.528E-09
1428.400  7.488E-09
1428.600  7.267E-09
1428.800  7.329E-09
1429.000  7.166E-09
1429.200  6.481E-09
1429.400  6.998E-09
1429.600  7.181E-09
1429.800  7.424E-09
1430.000  6.484E-09
1430.200  7.583E-09
1430.400  7.454E-09
1430.600  7.699E-09
1430.800  5.657E-09
1431.000  7.177E-09
1431.200  7.064E-09
1431.400  6.731E-09
1431.600  7.033E-09
1431.800  6.669E-09
1432.000  6.050E-09
1432.200  5.814E-09
1432.400  3.955E-09
1432.600  6.921E-09
1432.800  5.496E-09
1433.000  6.017E-09
1433.200  5.840E-09
1433.400  6.892E-09
1433.600  6.350E-09
1433.800  6.208E-09
1434.000  7.241E-09
1434.200  6.986E-09
1434.400  6.475E-09
1434.600  4.954E-09
1434.800  6.365E-09
1435.000  6.881E-09
1435.200  6.335E-09
1435.400  6.699E-09
1435.600  6.912E-09
1435.800  6.808E-09
1436.000  6.739E-09
1436.200  7.140E-09
1436.400  6.669E-09
1436.600  7.313E-09
1436.800  7.167E-09
1437.000  6.900E-09
1437.200  7.392E-09
1437.400  6.993E-09
1437.600  6.992E-09
1437.800  7.279E-09
1438.000  7.230E-09
1438.200  7.569E-09
1438.400  6.718E-09
1438.600  5.478E-09
1438.800  5.614E-09
1439.000  6.803E-09
1439.200  6.358E-09
1439.400  6.537E-09
1439.600  7.449E-09
1439.800  7.681E-09
1440.000  7.669E-09
1440.200  7.226E-09
1440.400  7.452E-09
1440.600  7.058E-09
1440.800  5.806E-09
1441.000  6.320E-09
1441.200  7.401E-09
1441.400  7.570E-09
1441.600  6.371E-09
1441.800  7.173E-09
1442.000  7.215E-09
1442.200  6.941E-09
1442.400  6.489E-09
1442.600  7.098E-09
1442.800  6.894E-09
1443.000  7.448E-09
1443.200  7.693E-09
1443.400  7.160E-09
1443.600  7.290E-09
1443.800  7.407E-09
1444.000  7.509E-09
1444.200  5.505E-09
1444.400  7.495E-09
1444.600  7.391E-09
1444.800  7.030E-09
1445.000  6.314E-09
1445.200  7.346E-09
1445.400  6.696E-09
1445.600  7.180E-09
1445.800  6.967E-09
1446.000  7.191E-09
1446.200  7.547E-09
1446.400  7.507E-09
1446.600  6.429E-09
1446.800  7.570E-09
1447.000  7.525E-09
1447.200  6.587E-09
1447.400  7.245E-09
1447.600  7.590E-09
1447.800  7.724E-09
1448.000  6.537E-09
1448.200  5.140E-09
1448.400  6.944E-09
1448.600  7.514E-09
1448.800  7.423E-09
1449.000  7.405E-09
1449.200  7.459E-09
1449.400  7.686E-09
1449.600  7.696E-09
1449.800  7.533E-09
1450.000  7.171E-09
1450.200  7.389E-09
1450.400  7.454E-09
1450.600  7.420E-09
1450.800  7.356E-09
1451.000  7.353E-09
1451.200  6.969E-09
1451.400  7.320E-09
1451.600  7.191E-09
1451.800  7.334E-09
1452.000  7.539E-09
1452.200  7.520E-09
1452.400  6.775E-09
1452.600  7.559E-09
1452.800  7.593E-09
1453.000  7.356E-09
1453.200  7.805E-09
1453.400  7.343E-09
1453.600  7.395E-09
1453.800  7.529E-09
1454.000  7.712E-09
1454.200  7.707E-09
1454.400  7.552E-09
1454.600  7.363E-09
1454.800  6.275E-09
1455.000  7.435E-09
1455.200  7.684E-09
1455.400  7.845E-09
1455.600  7.408E-09
1455.800  7.232E-09
1456.000  7.085E-09
1456.200  7.378E-09
1456.400  7.272E-09
1456.600  7.690E-09
1456.800  7.343E-09
1457.000  7.698E-09
1457.200  7.382E-09
1457.400  7.136E-09
1457.600  7.516E-09
1457.800  7.337E-09
1458.000  6.943E-09
1458.200  7.510E-09
1458.400  7.626E-09
1458.600  8.137E-09
1458.800  7.990E-09
1459.000  6.883E-09
1459.200  7.119E-09
1459.400  7.406E-09
1459.600  7.341E-09
1459.800  7.903E-09
1460.000  7.937E-09
1460.200  7.035E-09
1460.400  6.569E-09
1460.600  7.179E-09
1460.800  7.067E-09
1461.000  7.014E-09
1461.200  7.317E-09
1461.400  7.852E-09
1461.600  7.725E-09
1461.800  6.791E-09
1462.000  7.332E-09
1462.200  7.327E-09
1462.400  6.894E-09
1462.600  7.858E-09
1462.800  7.891E-09
1463.000  7.327E-09
1463.200  5.084E-09
1463.400  4.682E-09
1463.600  6.592E-09
1463.800  7.706E-09
1464.000  7.965E-09
1464.200  7.756E-09
1464.400  7.783E-09
1464.600  7.325E-09
1464.800  6.703E-09
1465.000  6.292E-09
1465.200  7.544E-09
1465.400  7.843E-09
1465.600  7.986E-09
1465.800  7.979E-09
1466.000  7.943E-09
1466.200  8.109E-09
1466.400  8.163E-09
1466.600  7.636E-09
1466.800  7.673E-09
1467.000  6.746E-09
1467.200  5.993E-09
1467.400  4.397E-09
1467.600  4.624E-09
1467.800  5.152E-09
1468.000  7.089E-09
1468.200  6.835E-09
1468.400  6.366E-09
1468.600  7.931E-09
1468.800  7.905E-09
1469.000  6.626E-09
1469.200  6.192E-09
1469.400  6.935E-09
1469.600  6.974E-09
1469.800  7.589E-09
1470.000  5.363E-09
1470.200  7.002E-09
1470.400  7.301E-09
1470.600  7.301E-09
1470.800  8.194E-09
1471.000  7.807E-09
1471.200  7.985E-09
1471.400  8.005E-09
1471.600  7.843E-09
1471.800  7.048E-09
1472.000  6.263E-09
1472.200  6.574E-09
1472.400  7.118E-09
1472.600  7.848E-09
1472.800  7.684E-09
1473.000  4.164E-09
1473.200  5.310E-09
1473.400  6.263E-09
1473.600  7.423E-09
1473.800  5.874E-09
1474.000  6.827E-09
1474.200  6.842E-09
1474.400  5.934E-09
1474.600  4.225E-09
1474.800  7.040E-09
1475.000  6.105E-09
1475.200  7.853E-09
1475.400  7.526E-09
1475.600  7.378E-09
1475.800  6.139E-09
1476.000  7.963E-09
1476.200  8.052E-09
1476.400  7.575E-09
1476.600  7.433E-09
1476.800  8.155E-09
1477.000  7.941E-09
1477.200  7.384E-09
1477.400  6.800E-09
1477.600  8.078E-09
1477.800  7.291E-09
1478.000  6.470E-09
1478.200  7.497E-09
1478.400  6.982E-09
1478.600  7.373E-09
1478.800  8.220E-09
1479.000  8.153E-09
1479.200  7.902E-09
1479.400  7.004E-09
1479.600  7.318E-09
1479.800  7.778E-09
1480.000  7.858E-09
1480.200  7.663E-09
1480.400  7.800E-09
1480.600  7.687E-09
1480.800  7.060E-09
1481.000  3.345E-09
1481.200  5.612E-09
1481.400  5.553E-09
1481.600  5.527E-09
1481.800  7.417E-09
1482.000  7.419E-09
1482.200  7.473E-09
1482.400  7.337E-09
1482.600  7.272E-09
1482.800  4.913E-09
1483.000  4.602E-09
1483.200  5.977E-09
1483.400  6.378E-09
1483.600  5.711E-09
1483.800  7.847E-09
1484.000  7.676E-09
1484.200  7.626E-09
1484.400  7.851E-09
1484.600  7.653E-09
1484.800  6.833E-09
1485.000  5.587E-09
1485.200  5.149E-09
1485.400  4.760E-09
1485.600  7.001E-09
1485.800  7.829E-09
1486.000  7.634E-09
1486.200  7.660E-09
1486.400  6.736E-09
1486.600  7.048E-09
1486.800  7.588E-09
1487.000  7.411E-09
1487.200  7.602E-09
1487.400  7.674E-09
1487.600  7.735E-09
1487.800  7.885E-09
1488.000  8.104E-09
1488.200  8.017E-09
1488.400  8.120E-09
1488.600  8.148E-09
1488.800  7.955E-09
1489.000  7.487E-09
1489.200  7.298E-09
1489.400  7.703E-09
1489.600  7.924E-09
1489.800  7.934E-09
1490.000  8.023E-09
1490.200  7.948E-09
1490.400  8.058E-09
1490.600  7.063E-09
1490.800  7.853E-09
1491.000  7.852E-09
1491.200  7.773E-09
1491.400  7.620E-09
1491.600  7.329E-09
1491.800  7.314E-09
1492.000  7.415E-09
1492.200  7.410E-09
1492.400  6.430E-09
1492.600  1.191E-09
1492.800  6.149E-09
1493.000  7.036E-09
1493.200  6.475E-09
1493.400  7.281E-09
1493.600  7.095E-09
1493.800  7.377E-09
1494.000  6.801E-09
1494.200  7.274E-09
1494.400  6.056E-09
1494.600  2.503E-09
1494.800  7.507E-09
1495.000  7.472E-09
1495.200  7.577E-09
1495.400  7.940E-09
1495.600  7.818E-09
1495.800  7.908E-09
1496.000  7.871E-09
1496.200  7.867E-09
1496.400  7.718E-09
1496.600  8.057E-09
1496.800  8.010E-09
1497.000  7.843E-09
1497.200  7.946E-09
1497.400  8.114E-09
1497.600  8.100E-09
1497.800  8.132E-09
1498.000  8.066E-09
1498.200  8.000E-09
1498.400  8.064E-09
1498.600  7.773E-09
1498.800  8.070E-09
1499.000  8.156E-09
1499.200  7.380E-09
1499.400  7.667E-09
1499.600  7.761E-09
1499.800  7.638E-09
1500.000  8.047E-09
1500.200  7.890E-09
1500.400  7.298E-09
1500.600  8.227E-09
1500.800  8.155E-09
1501.000  7.853E-09
1501.200  8.128E-09
1501.400  8.174E-09
1501.600  8.128E-09
1501.800  7.847E-09
1502.000  6.618E-09
1502.200  7.455E-09
1502.400  8.186E-09
1502.600  8.058E-09
1502.800  7.952E-09
1503.000  8.015E-09
1503.200  8.119E-09
1503.400  7.992E-09
1503.600  8.130E-09
1503.800  8.087E-09
1504.000  7.879E-09
1504.200  7.378E-09
1504.400  7.775E-09
1504.600  7.614E-09
1504.800  7.819E-09
1505.000  7.520E-09
1505.200  7.548E-09
1505.400  7.780E-09
1505.600  7.529E-09
1505.800  7.713E-09
1506.000  7.882E-09
1506.200  8.068E-09
1506.400  7.988E-09
1506.600  7.743E-09
1506.800  6.354E-09
1507.000  7.971E-09
1507.200  7.748E-09
1507.400  7.880E-09
1507.600  7.907E-09
1507.800  7.622E-09
1508.000  7.610E-09
1508.200  6.932E-09
1508.400  7.405E-09
1508.600  7.599E-09
1508.800  6.876E-09
1509.000  6.913E-09
1509.200  6.030E-09
1509.400  6.567E-09
1509.600  7.931E-09
1509.800  7.865E-09
1510.000  6.784E-09
1510.200  7.488E-09
1510.400  7.223E-09
1510.600  6.495E-09
1510.800  4.804E-09
1511.000  5.908E-09
1511.200  6.976E-09
1511.400  7.183E-09
1511.600  7.243E-09
1511.800  6.599E-09
1512.000  5.550E-09
1512.200  7.550E-09
1512.400  7.666E-09
1512.600  7.643E-09
1512.800  7.574E-09
1513.000  7.713E-09
1513.200  5.967E-09
1513.400  7.605E-09
1513.600  7.626E-09
1513.800  7.019E-09
1514.000  7.853E-09
1514.200  7.660E-09
1514.400  7.281E-09
1514.600  7.891E-09
1514.800  7.834E-09
1515.000  7.971E-09
1515.200  6.707E-09
1515.400  7.278E-09
1515.600  7.323E-09
1515.800  7.455E-09
1516.000  5.470E-09
1516.200  7.600E-09
1516.400  8.073E-09
1516.600  7.520E-09
1516.800  7.298E-09
1517.000  7.855E-09
1517.200  7.798E-09
1517.400  7.857E-09
1517.600  8.034E-09
1517.800  7.959E-09
1518.000  7.367E-09
1518.200  8.050E-09
1518.400  7.601E-09
1518.600  7.333E-09
1518.800  7.985E-09
1519.000  8.097E-09
1519.200  7.985E-09
1519.400  6.626E-09
1519.600  7.838E-09
1519.800  7.881E-09
1520.000  7.893E-09
1520.200  7.997E-09
1520.400  7.921E-09
1520.600  8.185E-09
1520.800  7.297E-09
1521.000  8.090E-09
1521.200  7.966E-09
1521.400  7.534E-09
1521.600  7.894E-09
1521.800  7.906E-09
1522.000  8.078E-09
1522.200  7.997E-09
1522.400  8.069E-09
1522.600  7.802E-09
1522.800  7.883E-09
1523.000  7.840E-09
1523.200  7.412E-09
1523.400  7.952E-09
1523.600  8.027E-09
1523.800  7.515E-09
1524.000  7.866E-09
1524.200  7.846E-09
1524.400  7.915E-09
1524.600  7.801E-09
1524.800  7.822E-09
1525.000  5.710E-09
1525.200  7.072E-09
1525.400  7.749E-09
1525.600  7.643E-09
1525.800  7.444E-09
1526.000  7.383E-09
1526.200  6.126E-09
1526.400  4.659E-09
1526.600  1.269E-09
1526.800  4.127E-09
1527.000  6.258E-09
1527.200  5.495E-09
1527.400  6.892E-09
1527.600  6.835E-09
1527.800  8.015E-09
1528.000  7.902E-09
1528.200  7.921E-09
1528.400  8.054E-09
1528.600  8.055E-09
1528.800  7.569E-09
1529.000  7.553E-09
1529.200  7.659E-09
1529.400  7.419E-09
1529.600  7.595E-09
1529.800  7.915E-09
1530.000  8.079E-09
1530.200  8.049E-09
1530.400  7.477E-09
1530.600  7.517E-09
1530.800  7.590E-09
1531.000  7.640E-09
1531.200  7.728E-09
1531.400  7.741E-09
1531.600  7.574E-09
1531.800  7.582E-09
1532.000  7.604E-09
1532.200  7.520E-09
1532.400  7.072E-09
1532.600  6.978E-09
1532.800  5.638E-09
1533.000  5.747E-09
1533.200  3.920E-09
1533.400  1.031E-09
1533.600  4.581E-09
1533.800  6.312E-09
1534.000  6.455E-09
1534.200  6.713E-09
1534.400  6.987E-09
1534.600  7.384E-09
1534.800  7.088E-09
1535.000  7.446E-09
1535.200  7.686E-09
1535.400  8.060E-09
1535.600  8.201E-09
1535.800  8.144E-09
1536.000  7.842E-09
1536.200  8.161E-09
1536.400  7.854E-09
1536.600  8.071E-09
1536.800  6.642E-09
1537.000  7.239E-09
1537.200  7.230E-09
1537.400  7.209E-09
1537.600  7.795E-09
1537.800  7.791E-09
1538.000  8.045E-09
1538.200  8.304E-09
1538.400  7.957E-09
1538.600  8.450E-09
1538.800  8.503E-09
1539.000  8.274E-09
1539.200  8.191E-09
1539.400  7.870E-09
1539.600  8.488E-09
1539.800  7.497E-09
1540.000  8.131E-09
1540.200  7.966E-09
1540.400  7.753E-09
1540.600  7.529E-09
1540.800  7.047E-09
1541.000  7.023E-09
1541.200  7.467E-09
1541.400  7.209E-09
1541.600  7.942E-09
1541.800  7.924E-09
1542.000  6.708E-09
1542.200  4.888E-09
1542.400  7.539E-09
1542.600  8.123E-09
1542.800  8.586E-09
1543.000  8.363E-09
1543.200  8.424E-09
1543.400  8.592E-09
1543.600  7.736E-09
1543.800  7.854E-09
1544.000  8.136E-09
1544.200  8.165E-09
1544.400  8.409E-09
1544.600  7.440E-09
1544.800  7.533E-09
1545.000  5.707E-09
1545.200  6.936E-09
1545.400  7.608E-09
1545.600  5.886E-09
1545.800  8.137E-09
1546.000  8.782E-09
1546.200  8.782E-09
1546.400  7.474E-09
1546.600  8.134E-09
1546.800  8.673E-09
1547.000  7.997E-09
1547.200  7.089E-09
1547.400  8.190E-09
1547.600  8.182E-09
1547.800  7.140E-09
1548.000  7.181E-09
1548.200  7.794E-09
1548.400  7.442E-09
1548.600  7.183E-09
1548.800  7.667E-09
1549.000  8.524E-09
1549.200  8.515E-09
1549.400  8.604E-09
1549.600  8.660E-09
1549.800  8.665E-09
1550.000  8.697E-09
1550.200  6.861E-09
1550.400  8.132E-09
1550.600  8.143E-09
1550.800  8.076E-09
1551.000  7.605E-09
1551.200  7.407E-09
1551.400  8.295E-09
1551.600  8.268E-09
1551.800  6.938E-09
1552.000  7.421E-09
1552.200  6.858E-09
1552.400  8.213E-09
1552.600  7.999E-09
1552.800  7.196E-09
1553.000  7.311E-09
1553.200  6.829E-09
1553.400  8.113E-09
1553.600  8.311E-09
1553.800  8.442E-09
1554.000  8.510E-09
1554.200  8.510E-09
1554.400  8.488E-09
1554.600  5.727E-09
1554.800  8.525E-09
1555.000  8.547E-09
1555.200  7.842E-09
1555.400  7.473E-09
1555.600  7.813E-09
1555.800  8.243E-09
1556.000  8.263E-09
1556.200  7.692E-09
1556.400  7.748E-09
1556.600  7.460E-09
1556.800  7.630E-09
1557.000  8.275E-09
1557.200  8.357E-09
1557.400  7.656E-09
1557.600  8.100E-09
1557.800  8.449E-09
1558.000  8.317E-09
1558.200  7.668E-09
1558.400  7.644E-09
1558.600  5.250E-09
1558.800  7.726E-09
1559.000  6.375E-09
1559.200  6.028E-09
1559.400  7.819E-09
1559.600  7.760E-09
1559.800  7.916E-09
1560.000  7.129E-09
1560.200  5.344E-09
1560.400  6.700E-09
1560.600  5.724E-09
1560.800  6.630E-09
1561.000  6.922E-09
1561.200  6.956E-09
1561.400  6.148E-09
1561.600  7.500E-09
1561.800  6.317E-09
1562.000  7.477E-09
1562.200  7.327E-09
1562.400  7.684E-09
1562.600  8.124E-09
1562.800  7.576E-09
1563.000  7.810E-09
1563.200  7.919E-09
1563.400  7.799E-09
1563.600  7.564E-09
1563.800  7.341E-09
1564.000  7.783E-09
1564.200  8.442E-09
1564.400  8.319E-09
1564.600  7.091E-09
1564.800  7.666E-09
1565.000  8.294E-09
1565.200  8.173E-09
1565.400  6.518E-09
1565.600  8.476E-09
1565.800  8.423E-09
1566.000  8.331E-09
1566.200  8.249E-09
1566.400  7.212E-09
1566.600  7.947E-09
1566.800  7.640E-09
1567.000  7.762E-09
1567.200  8.088E-09
1567.400  7.350E-09
1567.600  6.660E-09
1567.800  7.386E-09
1568.000  5.635E-09
1568.200  8.268E-09
1568.400  8.310E-09
1568.600  7.405E-09
1568.800  7.625E-09
1569.000  7.969E-09
1569.200  7.724E-09
1569.400  7.629E-09
1569.600  7.129E-09
1569.800  7.994E-09
1570.000  7.607E-09
1570.200  7.106E-09
1570.400  7.538E-09
1570.600  7.745E-09
1570.800  7.949E-09
1571.000  6.165E-09
1571.200  7.255E-09
1571.400  8.003E-09
1571.600  8.015E-09
1571.800  8.223E-09
1572.000  8.197E-09
1572.200  7.954E-09
1572.400  8.053E-09
1572.600  6.861E-09
1572.800  6.529E-09
1573.000  7.698E-09
1573.200  7.693E-09
1573.400  7.518E-09
1573.600  5.566E-09
1573.800  3.888E-09
1574.000  6.779E-09
1574.200  8.027E-09
1574.400  7.583E-09
1574.600  7.148E-09
1574.800  2.678E-09
1575.000  6.033E-09
1575.200  7.268E-09
1575.400  8.127E-09
1575.600  7.614E-09
1575.800  7.707E-09
1576.000  8.412E-09
1576.200  8.467E-09
1576.400  8.207E-09
1576.600  8.214E-09
1576.800  6.972E-09
1577.000  6.529E-09
1577.200  8.295E-09
1577.400  8.531E-09
1577.600  8.612E-09
1577.800  8.387E-09
1578.000  6.627E-09
1578.200  6.985E-09
1578.400  6.711E-09
1578.600  8.232E-09
1578.800  8.191E-09
1579.000  8.290E-09
1579.200  8.010E-09
1579.400  8.283E-09
1579.600  8.021E-09
1579.800  8.433E-09
1580.000  8.422E-09
1580.200  6.833E-09
1580.400  7.754E-09
1580.600  7.542E-09
1580.800  8.460E-09
1581.000  8.422E-09
1581.200  7.424E-09
1581.400  8.016E-09
1581.600  8.198E-09
1581.800  8.210E-09
1582.000  8.525E-09
1582.200  7.741E-09
1582.400  7.832E-09
1582.600  8.448E-09
1582.800  8.270E-09
1583.000  8.334E-09
1583.200  8.196E-09
1583.400  8.149E-09
1583.600  8.196E-09
1583.800  8.213E-09
1584.000  7.304E-09
1584.200  7.386E-09
1584.400  8.217E-09
1584.600  8.400E-09
1584.800  7.505E-09
1585.000  7.199E-09
1585.200  7.181E-09
1585.400  8.183E-09
1585.600  8.246E-09
1585.800  8.588E-09
1586.000  6.702E-09
1586.200  7.692E-09
1586.400  8.210E-09
1586.600  7.756E-09
1586.800  7.634E-09
1587.000  7.545E-09
1587.200  8.372E-09
1587.400  8.026E-09
1587.600  8.169E-09
1587.800  7.939E-09
1588.000  8.083E-09
1588.200  7.440E-09
1588.400  8.042E-09
1588.600  7.512E-09
1588.800  8.190E-09
1589.000  8.289E-09
1589.200  7.834E-09
1589.400  7.883E-09
1589.600  7.733E-09
1589.800  8.189E-09
1590.000  7.905E-09
1590.200  8.174E-09
1590.400  6.941E-09
1590.600  7.968E-09
1590.800  8.047E-09
1591.000  7.654E-09
1591.200  8.036E-09
1591.400  8.334E-09
1591.600  7.712E-09
1591.800  8.076E-09
1592.000  7.443E-09
1592.200  7.190E-09
1592.400  6.835E-09
1592.600  7.551E-09
1592.800  8.007E-09
1593.000  8.142E-09
1593.200  7.267E-09
1593.400  7.536E-09
1593.600  7.536E-09
1593.800  7.960E-09
1594.000  7.448E-09
1594.200  7.527E-09
1594.400  7.047E-09
1594.600  6.127E-09
1594.800  6.233E-09
1595.000  7.093E-09
1595.200  7.127E-09
1595.400  6.181E-09
1595.600  5.548E-09
1595.800  7.394E-09
1596.000  7.950E-09
1596.200  8.052E-09
1596.400  7.954E-09
1596.600  7.668E-09
1596.800  7.525E-09
1597.000  8.155E-09
1597.200  8.145E-09
1597.400  8.036E-09
1597.600  7.773E-09
1597.800  7.602E-09
1598.000  8.236E-09
1598.200  8.162E-09
1598.400  8.086E-09
1598.600  8.390E-09
1598.800  8.249E-09
1599.000  8.283E-09
1599.200  8.209E-09
1599.400  8.550E-09
1599.600  8.466E-09
1599.800  8.347E-09
1600.000  7.879E-09
1600.200  8.028E-09
1600.400  8.107E-09
1600.600  7.836E-09
1600.800  7.837E-09
1601.000  7.895E-09
1601.200  7.409E-09
1601.400  7.291E-09
1601.600  7.299E-09
1601.800  8.132E-09
1602.000  7.742E-09
1602.200  7.485E-09
1602.400  7.385E-09
1602.600  6.553E-09
1602.800  5.930E-09
1603.000  7.153E-09
1603.200  7.662E-09
1603.400  7.929E-09
1603.600  8.099E-09
1603.800  8.226E-09
1604.000  8.619E-09
1604.200  8.586E-09
1604.400  8.463E-09
1604.600  7.915E-09
1604.800  8.074E-09
1605.000  8.188E-09
1605.200  7.429E-09
1605.400  8.290E-09
1605.600  8.361E-09
1605.800  6.107E-09
1606.000  7.397E-09
1606.200  7.433E-09
1606.400  8.158E-09
1606.600  7.886E-09
1606.800  7.462E-09
1607.000  7.838E-09
1607.200  8.035E-09
1607.400  7.456E-09
1607.600  7.452E-09
1607.800  7.647E-09
1608.000  7.522E-09
1608.200  7.531E-09
1608.400  4.507E-09
1608.600  8.075E-09
1608.800  7.882E-09
1609.000  7.647E-09
1609.200  8.279E-09
1609.400  7.978E-09
1609.600  8.217E-09
1609.800  8.173E-09
1610.000  8.132E-09
1610.200  7.621E-09
1610.400  8.326E-09
1610.600  8.230E-09
1610.800  7.427E-09
1611.000  7.596E-09
1611.200  7.691E-09
1611.400  7.850E-09
1611.600  7.638E-09
1611.800  7.779E-09
1612.000  7.803E-09
1612.200  7.108E-09
1612.400  7.384E-09
1612.600  7.459E-09
1612.800  6.113E-09
1613.000  7.587E-09
1613.200  7.560E-09
1613.400  8.250E-09
1613.600  8.209E-09
1613.800  6.960E-09
1614.000  8.220E-09
1614.200  8.319E-09
1614.400  8.017E-09
1614.600  7.128E-09
1614.800  7.621E-09
1615.000  8.076E-09
1615.200  8.085E-09
1615.400  7.937E-09
1615.600  8.136E-09
1615.800  7.460E-09
1616.000  7.728E-09
1616.200  8.233E-09
1616.400  8.233E-09
1616.600  6.537E-09
1616.800  7.502E-09
1617.000  7.743E-09
1617.200  7.782E-09
1617.400  8.054E-09
1617.600  8.395E-09
1617.800  8.385E-09
1618.000  7.764E-09
1618.200  7.790E-09
1618.400  6.545E-09
1618.600  8.137E-09
1618.800  7.642E-09
1619.000  8.032E-09
1619.200  8.050E-09
1619.400  7.390E-09
1619.600  8.164E-09
1619.800  7.904E-09
1620.000  6.993E-09
1620.200  7.167E-09
1620.400  8.099E-09
1620.600  8.205E-09
1620.800  8.063E-09
1621.000  7.381E-09
1621.200  6.717E-09
1621.400  7.167E-09
1621.600  6.688E-09
1621.800  6.818E-09
1622.000  7.864E-09
1622.200  7.989E-09
1622.400  8.140E-09
1622.600  8.271E-09
1622.800  7.167E-09
1623.000  5.902E-09
1623.200  8.066E-09
1623.400  7.788E-09
1623.600  7.393E-09
1623.800  8.218E-09
1624.000  8.042E-09
1624.200  8.299E-09
1624.400  8.289E-09
1624.600  8.145E-09
1624.800  8.113E-09
1625.000  8.097E-09
1625.200  8.018E-09
1625.400  7.232E-09
1625.600  5.384E-09
1625.800  5.792E-09
1626.000  8.204E-09
1626.200  8.190E-09
1626.400  8.173E-09
1626.600  8.292E-09
1626.800  7.663E-09
1627.000  6.598E-09
1627.200  7.751E-09
1627.400  8.050E-09
1627.600  8.099E-09
1627.800  8.011E-09
1628.000  8.170E-09
1628.200  8.011E-09
1628.400  7.807E-09
1628.600  7.665E-09
1628.800  8.020E-09
1629.000  8.034E-09
1629.200  5.492E-09
1629.400  7.360E-09
1629.600  7.909E-09
1629.800  7.115E-09
1630.000  6.970E-09
1630.200  7.678E-09
1630.400  7.924E-09
1630.600  7.978E-09
1630.800  7.783E-09
1631.000  7.545E-09
1631.200  7.782E-09
1631.400  7.792E-09
1631.600  8.036E-09
1631.800  8.062E-09
1632.000  8.117E-09
1632.200  7.668E-09
1632.400  7.869E-09
1632.600  7.042E-09
1632.800  7.662E-09
1633.000  7.846E-09
1633.200  6.367E-09
1633.400  7.405E-09
1633.600  7.335E-09
1633.800  7.050E-09
1634.000  7.348E-09
1634.200  7.324E-09
1634.400  7.975E-09
1634.600  8.024E-09
1634.800  8.063E-09
1635.000  8.059E-09
1635.200  7.811E-09
1635.400  7.336E-09
1635.600  7.738E-09
1635.800  7.388E-09
1636.000  6.990E-09
1636.200  6.954E-09
1636.400  7.896E-09
1636.600  7.906E-09
1636.800  7.763E-09
1637.000  7.889E-09
1637.200  7.910E-09
1637.400  7.106E-09
1637.600  7.619E-09
1637.800  7.804E-09
1638.000  7.795E-09
1638.200  7.596E-09
1638.400  7.781E-09
1638.600  7.833E-09
1638.800  7.875E-09
1639.000  7.510E-09
1639.200  6.860E-09
1639.400  5.881E-09
1639.600  7.914E-09
1639.800  7.917E-09
1640.000  7.578E-09
1640.200  6.971E-09
1640.400  7.781E-09
1640.600  7.659E-09
1640.800  6.862E-09
1641.000  7.332E-09
1641.200  7.369E-09
1641.400  8.022E-09
1641.600  8.032E-09
1641.800  7.605E-09
1642.000  7.346E-09
1642.200  7.067E-09
1642.400  5.531E-09
1642.600  7.645E-09
1642.800  7.873E-09
1643.000  7.874E-09
1643.200  7.874E-09
1643.400  5.925E-09
1643.600  7.091E-09
1643.800  7.577E-09
1644.000  7.708E-09
1644.200  7.886E-09
1644.400  7.470E-09
1644.600  7.587E-09
1644.800  7.706E-09
1645.000  7.791E-09
1645.200  7.915E-09
1645.400  7.807E-09
1645.600  7.791E-09
1645.800  7.783E-09
1646.000  7.786E-09
1646.200  7.692E-09
1646.400  7.706E-09
1646.600  7.855E-09
1646.800  7.925E-09
1647.000  7.842E-09
1647.200  7.867E-09
1647.400  7.885E-09
1647.600  6.824E-09
1647.800  7.798E-09
1648.000  8.019E-09
1648.200  7.974E-09
1648.400  7.768E-09
1648.600  7.956E-09
1648.800  8.000E-09
1649.000  7.771E-09
1649.200  5.110E-09
1649.400  3.692E-09
1649.600  6.568E-09
1649.800  6.673E-09
1650.000  7.812E-09
1650.200  7.816E-09
1650.400  7.402E-09
1650.600  7.203E-09
1650.800  7.531E-09
1651.000  7.636E-09
1651.200  7.809E-09
1651.400  7.894E-09
1651.600  7.352E-09
1651.800  7.663E-09
1652.000  7.702E-09
1652.200  7.694E-09
1652.400  7.588E-09
1652.600  7.843E-09
1652.800  7.606E-09
1653.000  7.768E-09
1653.200  7.700E-09
1653.400  7.533E-09
1653.600  7.489E-09
1653.800  7.664E-09
1654.000  6.939E-09
1654.200  5.922E-09
1654.400  5.849E-09
1654.600  6.851E-09
1654.800  7.276E-09
1655.000  7.130E-09
1655.200  7.392E-09
1655.400  7.368E-09
1655.600  7.475E-09
1655.800  7.340E-09
1656.000  6.433E-09
1656.200  2.633E-09
1656.400  5.336E-09
1656.600  5.375E-09
1656.800  1.644E-09
1657.000  2.226E-09
1657.200  2.375E-09
1657.400  3.174E-09
1657.600  5.170E-09
1657.800  4.052E-09
1658.000  1.478E-09
1658.200  4.371E-09
1658.400  6.564E-09
1658.600  6.557E-09
1658.800  6.854E-09
1659.000  7.263E-09
1659.200  7.278E-09
1659.400  5.824E-09
1659.600  7.434E-09
1659.800  7.732E-09
1660.000  7.681E-09
1660.200  7.681E-09
1660.400  7.377E-09
1660.600  7.777E-09
1660.800  7.014E-09
1661.000  7.709E-09
1661.200  7.524E-09
1661.400  7.483E-09
1661.600  7.793E-09
1661.800  7.730E-09
1662.000  7.760E-09
1662.200  7.650E-09
1662.400  7.707E-09
1662.600  7.763E-09
1662.800  7.464E-09
1663.000  7.517E-09
1663.200  7.107E-09
1663.400  7.544E-09
1663.600  6.921E-09
1663.800  6.619E-09
1664.000  7.520E-09
1664.200  7.453E-09
1664.400  7.059E-09
1664.600  7.784E-09
1664.800  7.790E-09
1665.000  7.682E-09
1665.200  7.718E-09
1665.400  7.463E-09
1665.600  7.843E-09
1665.800  7.811E-09
1666.000  7.380E-09
1666.200  7.585E-09
1666.400  7.607E-09
1666.600  6.661E-09
1666.800  7.669E-09
1667.000  7.649E-09
1667.200  7.498E-09
1667.400  7.449E-09
1667.600  7.558E-09
1667.800  7.496E-09
1668.000  7.657E-09
1668.200  7.746E-09
1668.400  7.272E-09
1668.600  7.693E-09
1668.800  7.716E-09
1669.000  7.151E-09
1669.200  7.563E-09
1669.400  7.473E-09
1669.600  6.619E-09
1669.800  6.982E-09
1670.000  6.860E-09
1670.200  6.234E-09
1670.400  4.892E-09
1670.600  2.026E-09
1670.800  6.722E-10
1671.000  4.147E-09
1671.200  5.843E-09
1671.400  6.394E-09
1671.600  7.169E-09
1671.800  7.463E-09
1672.000  7.613E-09
1672.200  7.598E-09
1672.400  6.921E-09
1672.600  7.131E-09
1672.800  7.823E-09
1673.000  7.821E-09
1673.200  7.865E-09
1673.400  6.459E-09
1673.600  7.712E-09
1673.800  6.958E-09
1674.000  6.622E-09
1674.200  5.567E-09
1674.400  5.980E-09
1674.600  5.343E-09
1674.800  7.465E-09
1675.000  7.589E-09
1675.200  7.524E-09
1675.400  7.626E-09
1675.600  7.553E-09
1675.800  7.369E-09
1676.000  6.917E-09
1676.200  7.166E-09
1676.400  7.604E-09
1676.600  7.544E-09
1676.800  6.425E-09
1677.000  7.713E-09
1677.200  7.615E-09
1677.400  7.721E-09
1677.600  7.713E-09
1677.800  7.285E-09
1678.000  7.576E-09
1678.200  7.423E-09
1678.400  7.137E-09
1678.600  7.697E-09
1678.800  7.819E-09
1679.000  7.838E-09
1679.200  7.508E-09
1679.400  5.310E-09
1679.600  7.501E-09
1679.800  7.455E-09
1680.000  6.182E-09
1680.200  6.685E-09
1680.400  7.393E-09
1680.600  7.519E-09
1680.800  7.459E-09
1681.000  7.105E-09
1681.200  7.231E-09
1681.400  7.554E-09
1681.600  7.552E-09
1681.800  7.397E-09
1682.000  7.225E-09
1682.200  7.603E-09
1682.400  7.473E-09
1682.600  7.028E-09
1682.800  7.152E-09
1683.000  7.620E-09
1683.200  7.515E-09
1683.400  7.315E-09
1683.600  7.263E-09
1683.800  7.496E-09
1684.000  7.587E-09
1684.200  7.587E-09
1684.400  7.465E-09
1684.600  7.480E-09
1684.800  7.595E-09
1685.000  7.804E-09
1685.200  7.499E-09
1685.400  7.717E-09
1685.600  7.524E-09
1685.800  7.400E-09
1686.000  7.557E-09
1686.200  7.586E-09
1686.400  6.358E-09
1686.600  6.411E-09
1686.800  7.273E-09
1687.000  7.279E-09
1687.200  7.716E-09
1687.400  7.686E-09
1687.600  7.379E-09
1687.800  7.360E-09
1688.000  7.237E-09
1688.200  6.480E-09
1688.400  7.619E-09
1688.600  7.833E-09
1688.800  7.642E-09
1689.000  7.691E-09
1689.200  7.628E-09
1689.400  7.433E-09
1689.600  7.721E-09
1689.800  7.418E-09
1690.000  7.753E-09
1690.200  7.719E-09
1690.400  7.936E-09
1690.600  7.931E-09
1690.800  6.774E-09
1691.000  7.607E-09
1691.200  6.801E-09
1691.400  7.443E-09
1691.600  7.109E-09
1691.800  7.871E-09
1692.000  7.816E-09
1692.200  7.291E-09
1692.400  6.956E-09
1692.600  7.691E-09
1692.800  7.728E-09
1693.000  7.726E-09
1693.200  7.202E-09
1693.400  6.398E-09
1693.600  7.276E-09
1693.800  6.606E-09
1694.000  7.199E-09
1694.200  7.318E-09
1694.400  7.051E-09
1694.600  6.658E-09
1694.800  7.614E-09
1695.000  7.794E-09
1695.200  7.845E-09
1695.400  7.558E-09
1695.600  7.688E-09
1695.800  7.669E-09
1696.000  7.352E-09
1696.200  6.606E-09
1696.400  6.351E-09
1696.600  7.459E-09
1696.800  6.962E-09
1697.000  7.410E-09
1697.200  7.564E-09
1697.400  7.750E-09
1697.600  7.763E-09
1697.800  7.285E-09
1698.000  5.287E-09
1698.200  7.056E-09
1698.400  7.465E-09
1698.600  7.930E-09
1698.800  7.901E-09
1699.000  7.384E-09
1699.200  7.763E-09
1699.400  7.887E-09
1699.600  7.782E-09
1699.800  7.351E-09
1700.000  7.632E-09
1700.200  7.584E-09
1700.400  6.313E-09
1700.600  7.445E-09
1700.800  7.574E-09
1701.000  7.849E-09
1701.200  7.846E-09
1701.400  7.908E-09
1701.600  7.739E-09
1701.800  6.288E-09
1702.000  6.177E-09
1702.200  7.898E-09
1702.400  7.925E-09
1702.600  7.782E-09
1702.800  6.833E-09
1703.000  7.486E-09
1703.200  7.642E-09
1703.400  7.669E-09
1703.600  7.681E-09
1703.800  7.380E-09
1704.000  7.838E-09
1704.200  7.853E-09
1704.400  5.655E-09
1704.600  6.677E-09
1704.800  6.795E-09
1705.000  7.922E-09
1705.200  7.982E-09
1705.400  7.887E-09
1705.600  7.765E-09
1705.800  7.584E-09
1706.000  6.918E-09
1706.200  7.421E-09
1706.400  7.680E-09
1706.600  7.152E-09
1706.800  7.678E-09
1707.000  6.959E-09
1707.200  7.289E-09
1707.400  5.809E-09
1707.600  6.929E-09
1707.800  7.759E-09
1708.000  7.615E-09
1708.200  7.379E-09
1708.400  7.930E-09
1708.600  7.078E-09
1708.800  7.888E-09
1709.000  7.967E-09
1709.200  7.853E-09
1709.400  7.682E-09
1709.600  6.034E-09
1709.800  7.499E-09
1710.000  7.798E-09
1710.200  7.682E-09
1710.400  7.868E-09
1710.600  7.891E-09
1710.800  7.309E-09
1711.000  7.565E-09
1711.200  7.234E-09
1711.400  6.995E-09
1711.600  5.833E-09
1711.800  7.160E-09
1712.000  7.184E-09
1712.200  7.591E-09
1712.400  7.844E-09
1712.600  7.658E-09
1712.800  7.228E-09
1713.000  5.653E-09
1713.200  6.410E-09
1713.400  7.444E-09
1713.600  7.531E-09
1713.800  7.644E-09
1714.000  7.785E-09
1714.200  7.614E-09
1714.400  7.502E-09
1714.600  7.030E-09
1714.800  7.360E-09
1715.000  7.517E-09
1715.200  7.573E-09
1715.400  6.528E-09
1715.600  7.618E-09
1715.800  7.707E-09
1716.000  7.802E-09
1716.200  7.755E-09
1716.400  7.028E-09
1716.600  6.915E-09
1716.800  7.876E-09
1717.000  7.816E-09
1717.200  7.887E-09
1717.400  7.199E-09
1717.600  6.731E-09
1717.800  7.774E-09
1718.000  7.315E-09
1718.200  7.905E-09
1718.400  7.620E-09
1718.600  7.828E-09
1718.800  7.467E-09
1719.000  7.825E-09
1719.200  7.844E-09
1719.400  6.876E-09
1719.600  7.716E-09
1719.800  7.239E-09
1720.000  5.841E-09
1720.200  5.830E-09
1720.400  5.518E-09
1720.600  6.972E-09
1720.800  7.632E-09
1721.000  7.208E-09
1721.200  5.308E-09
1721.400  7.650E-09
1721.600  7.599E-09
1721.800  7.432E-09
1722.000  7.415E-09
1722.200  7.140E-09
1722.400  6.379E-09
1722.600  6.880E-09
1722.800  7.137E-09
1723.000  7.327E-09
1723.200  7.879E-09
1723.400  7.631E-09
1723.600  7.765E-09
1723.800  7.849E-09
1724.000  7.701E-09
1724.200  7.205E-09
1724.400  7.377E-09
1724.600  6.718E-09
1724.800  5.390E-09
1725.000  7.369E-09
1725.200  7.626E-09
1725.400  7.678E-09
1725.600  7.503E-09
1725.800  7.655E-09
1726.000  5.060E-09
1726.200  6.364E-09
1726.400  4.784E-09
1726.600  7.077E-09
1726.800  7.022E-09
1727.000  7.736E-09
1727.200  7.735E-09
1727.400  7.761E-09
1727.600  7.820E-09
1727.800  7.816E-09
1728.000  7.850E-09
1728.200  7.594E-09
1728.400  7.899E-09
1728.600  7.616E-09
1728.800  7.130E-09
1729.000  7.381E-09
1729.200  6.913E-09
1729.400  7.812E-09
1729.600  7.795E-09
1729.800  7.802E-09
1730.000  7.789E-09
1730.200  7.712E-09
1730.400  7.388E-09
1730.600  7.844E-09
1730.800  7.493E-09
1731.000  5.071E-09
1731.200  5.931E-09
1731.400  7.599E-09
1731.600  7.749E-09
1731.800  6.947E-09
1732.000  6.471E-09
1732.200  7.285E-09
1732.400  7.853E-09
1732.600  6.742E-09
1732.800  7.227E-09
1733.000  7.102E-09
1733.200  7.433E-09
1733.400  5.189E-09
1733.600  7.886E-09
1733.800  7.390E-09
1734.000  7.232E-09
1734.200  7.786E-09
1734.400  6.824E-09
1734.600  7.068E-09
1734.800  6.168E-09
1735.000  7.194E-09
1735.200  7.697E-09
1735.400  7.319E-09
1735.600  7.058E-09
1735.800  7.349E-09
1736.000  7.376E-09
1736.200  7.863E-09
1736.400  7.908E-09
1736.600  7.743E-09
1736.800  7.807E-09
1737.000  7.465E-09
1737.200  7.673E-09
1737.400  7.582E-09
1737.600  7.088E-09
1737.800  7.304E-09
1738.000  6.208E-09
1738.200  6.947E-09
1738.400  7.694E-09
1738.600  7.762E-09
1738.800  7.877E-09
1739.000  7.755E-09
1739.200  7.940E-09
1739.400  7.800E-09
1739.600  7.901E-09
1739.800  7.861E-09
1740.000  7.514E-09
1740.200  5.756E-09
1740.400  7.555E-09
1740.600  7.921E-09
1740.800  7.913E-09
1741.000  8.008E-09
1741.200  7.869E-09
1741.400  7.398E-09
1741.600  7.540E-09
1741.800  7.717E-09
1742.000  6.462E-09
1742.200  7.662E-09
1742.400  7.797E-09
1742.600  6.788E-09
1742.800  7.579E-09
1743.000  7.528E-09
1743.200  6.336E-09
1743.400  7.973E-09
1743.600  7.942E-09
1743.800  7.556E-09
1744.000  7.933E-09
1744.200  7.400E-09
1744.400  7.467E-09
1744.600  7.570E-09
1744.800  7.690E-09
1745.000  7.267E-09
1745.200  5.806E-09
1745.400  7.526E-09
1745.600  7.319E-09
1745.800  7.645E-09
1746.000  7.879E-09
1746.200  6.975E-09
1746.400  7.844E-09
1746.600  7.536E-09
1746.800  4.254E-09
1747.000  7.802E-09
1747.200  7.833E-09
1747.400  7.767E-09
1747.600  7.760E-09
1747.800  7.338E-09
1748.000  7.733E-09
1748.200  6.736E-09
1748.400  7.652E-09
1748.600  7.814E-09
1748.800  6.870E-09
1749.000  6.757E-09
1749.200  7.177E-09
1749.400  7.620E-09
1749.600  6.326E-09
1749.800  7.130E-09
1750.000  7.710E-09
1750.200  7.810E-09
1750.400  7.840E-09
1750.600  6.706E-09
1750.800  7.657E-09
1751.000  7.895E-09
1751.200  7.643E-09
1751.400  7.897E-09
1751.600  7.569E-09
1751.800  4.537E-09
1752.000  7.666E-09
1752.200  7.861E-09
1752.400  7.673E-09
1752.600  7.851E-09
1752.800  7.849E-09
1753.000  6.941E-09
1753.200  7.718E-09
1753.400  6.275E-09
1753.600  7.727E-09
1753.800  7.895E-09
1754.000  7.889E-09
1754.200  7.656E-09
1754.400  7.926E-09
1754.600  7.851E-09
1754.800  7.683E-09
1755.000  7.859E-09
1755.200  7.859E-09
1755.400  7.883E-09
1755.600  7.957E-09
1755.800  7.661E-09
1756.000  7.887E-09
1756.200  7.766E-09
1756.400  7.929E-09
1756.600  7.951E-09
1756.800  7.435E-09
1757.000  7.917E-09
1757.200  7.875E-09
1757.400  7.856E-09
1757.600  7.448E-09
1757.800  7.400E-09
1758.000  7.331E-09
1758.200  7.360E-09
1758.400  7.741E-09
1758.600  7.680E-09
1758.800  7.606E-09
1759.000  7.773E-09
1759.200  7.699E-09
1759.400  7.694E-09
1759.600  7.467E-09
1759.800  7.792E-09
1760.000  7.309E-09
1760.200  6.943E-09
1760.400  6.800E-09
1760.600  6.701E-09
1760.800  7.809E-09
1761.000  7.788E-09
1761.200  7.578E-09
1761.400  7.188E-09
1761.600  7.287E-09
1761.800  7.177E-09
1762.000  6.385E-09
1762.200  7.776E-09
1762.400  7.639E-09
1762.600  7.619E-09
1762.800  7.407E-09
1763.000  7.938E-09
1763.200  7.938E-09
1763.400  7.873E-09
1763.600  7.294E-09
1763.800  5.906E-09
1764.000  5.476E-09
1764.200  7.732E-09
1764.400  7.900E-09
1764.600  7.975E-09
1764.800  8.013E-09
1765.000  7.422E-09
1765.200  7.387E-09
1765.400  6.056E-09
1765.600  5.205E-09
1765.800  6.878E-09
1766.000  7.281E-09
1766.200  7.420E-09
1766.400  7.259E-09
1766.600  7.567E-09
1766.800  7.812E-09
1767.000  7.796E-09
1767.200  7.848E-09
1767.400  7.197E-09
1767.600  7.203E-09
1767.800  7.505E-09
1768.000  7.912E-09
1768.200  7.900E-09
1768.400  6.609E-09
1768.600  7.181E-09
1768.800  7.897E-09
1769.000  7.799E-09
1769.200  6.732E-09
1769.400  7.731E-09
1769.600  6.496E-09
1769.800  7.050E-09
1770.000  7.789E-09
1770.200  7.771E-09
1770.400  7.526E-09
1770.600  7.459E-09
1770.800  7.430E-09
1771.000  7.568E-09
1771.200  7.518E-09
1771.400  7.691E-09
1771.600  7.531E-09
1771.800  7.462E-09
1772.000  7.733E-09
1772.200  7.587E-09
1772.400  5.940E-09
1772.600  6.869E-09
1772.800  7.820E-09
1773.000  7.651E-09
1773.200  7.790E-09
1773.400  7.733E-09
1773.600  7.621E-09
1773.800  7.550E-09
1774.000  7.134E-09
1774.200  7.521E-09
1774.400  7.456E-09
1774.600  7.622E-09
1774.800  7.466E-09
1775.000  7.399E-09
1775.200  7.571E-09
1775.400  7.680E-09
1775.600  7.655E-09
1775.800  7.607E-09
1776.000  7.574E-09
1776.200  7.797E-09
1776.400  7.647E-09
1776.600  6.086E-09
1776.800  7.000E-09
1777.000  7.379E-09
1777.200  7.826E-09
1777.400  7.832E-09
1777.600  7.685E-09
1777.800  7.071E-09
1778.000  7.685E-09
1778.200  7.617E-09
1778.400  7.010E-09
1778.600  7.452E-09
1778.800  7.732E-09
1779.000  7.859E-09
1779.200  7.723E-09
1779.400  7.510E-09
1779.600  7.758E-09
1779.800  7.631E-09
1780.000  7.733E-09
1780.200  7.794E-09
1780.400  7.863E-09
1780.600  7.854E-09
1780.800  7.716E-09
1781.000  7.232E-09
1781.200  6.557E-09
1781.400  6.665E-09
1781.600  7.566E-09
1781.800  7.781E-09
1782.000  7.095E-09
1782.200  6.696E-09
1782.400  7.835E-09
1782.600  7.767E-09
1782.800  7.515E-09
1783.000  7.757E-09
1783.200  7.176E-09
1783.400  7.430E-09
1783.600  7.738E-09
1783.800  7.874E-09
1784.000  7.741E-09
1784.200  7.823E-09
1784.400  7.614E-09
1784.600  7.568E-09
1784.800  7.773E-09
1785.000  7.360E-09
1785.200  5.647E-09
1785.400  7.010E-09
1785.600  7.573E-09
1785.800  7.567E-09
1786.000  7.690E-09
1786.200  7.324E-09
1786.400  7.666E-09
1786.600  7.271E-09
1786.800  7.444E-09
1787.000  7.750E-09
1787.200  7.776E-09
1787.400  7.745E-09
1787.600  7.294E-09
1787.800  6.655E-09
1788.000  5.647E-09
1788.200  7.543E-09
1788.400  6.388E-09
1788.600  7.495E-09
1788.800  7.814E-09
1789.000  7.727E-09
1789.200  7.806E-09
1789.400  7.731E-09
1789.600  7.774E-09
1789.800  6.840E-09
1790.000  7.528E-09
1790.200  7.552E-09
1790.400  7.765E-09
1790.600  7.744E-09
1790.800  7.814E-09
1791.000  7.738E-09
1791.200  7.841E-09
1791.400  7.829E-09
1791.600  7.798E-09
1791.800  7.959E-09
1792.000  7.985E-09
1792.200  8.006E-09
1792.400  7.953E-09
1792.600  7.862E-09
1792.800  7.870E-09
1793.000  7.902E-09
1793.200  7.827E-09
1793.400  7.452E-09
1793.600  7.684E-09
1793.800  7.772E-09
1794.000  7.874E-09
1794.200  7.896E-09
1794.400  7.715E-09
1794.600  7.635E-09
1794.800  7.682E-09
1795.000  7.405E-09
1795.200  7.815E-09
1795.400  7.816E-09
1795.600  7.932E-09
1795.800  7.919E-09
1796.000  7.859E-09
1796.200  7.920E-09
1796.400  7.910E-09
1796.600  7.808E-09
1796.800  7.031E-09
1797.000  7.719E-09
1797.200  7.719E-09
1797.400  7.502E-09
1797.600  7.646E-09
1797.800  7.813E-09
1798.000  6.808E-09
1798.200  7.672E-09
1798.400  7.819E-09
1798.600  7.737E-09
1798.800  7.852E-09
1799.000  7.608E-09
1799.200  7.338E-09
1799.400  7.716E-09
1799.600  7.354E-09
1799.800  7.565E-09
1800.000  7.886E-09
1800.200  7.961E-09
1800.400  7.584E-09
1800.600  7.488E-09
1800.800  7.745E-09
1801.000  7.736E-09
1801.200  7.714E-09
1801.400  7.682E-09
1801.600  7.693E-09
1801.800  7.717E-09
1802.000  7.695E-09
1802.200  7.680E-09
1802.400  7.764E-09
1802.600  7.659E-09
1802.800  7.775E-09
1803.000  7.808E-09
1803.200  7.761E-09
1803.400  7.111E-09
1803.600  7.632E-09
1803.800  7.508E-09
1804.000  7.367E-09
1804.200  7.635E-09
1804.400  6.525E-09
1804.600  7.444E-09
1804.800  6.933E-09
1805.000  7.437E-09
1805.200  7.591E-09
1805.400  7.389E-09
1805.600  7.151E-09
1805.800  7.797E-09
1806.000  7.760E-09
1806.200  7.793E-09
1806.400  7.701E-09
1806.600  7.737E-09
1806.800  7.675E-09
1807.000  7.157E-09
1807.200  6.728E-09
1807.400  7.412E-09
1807.600  7.393E-09
1807.800  6.800E-09
1808.000  7.240E-09
1808.200  7.437E-09
1808.400  7.326E-09
1808.600  7.342E-09
1808.800  7.200E-09
1809.000  6.208E-09
1809.200  6.144E-09
1809.400  7.625E-09
1809.600  7.688E-09
1809.800  7.623E-09
1810.000  7.654E-09
1810.200  7.700E-09
1810.400  7.589E-09
1810.600  7.702E-09
1810.800  7.444E-09
1811.000  7.241E-09
1811.200  7.753E-09
1811.400  7.718E-09
1811.600  7.667E-09
1811.800  7.548E-09
1812.000  6.708E-09
1812.200  7.119E-09
1812.400  7.713E-09
1812.600  7.703E-09
1812.800  7.600E-09
1813.000  7.532E-09
1813.200  7.712E-09
1813.400  7.783E-09
1813.600  7.747E-09
1813.800  7.798E-09
1814.000  6.669E-09
1814.200  7.642E-09
1814.400  7.097E-09
1814.600  7.553E-09
1814.800  7.779E-09
1815.000  7.729E-09
1815.200  7.649E-09
1815.400  7.293E-09
1815.600  7.334E-09
1815.800  7.579E-09
1816.000  7.585E-09
1816.200  7.667E-09
1816.400  7.691E-09
1816.600  7.718E-09
1816.800  7.168E-09
1817.000  7.704E-09
1817.200  7.750E-09
1817.400  5.142E-09
1817.600  7.548E-09
1817.800  7.566E-09
1818.000  7.624E-09
1818.200  7.580E-09
1818.400  6.363E-09
1818.600  7.692E-09
1818.800  7.705E-09
1819.000  7.641E-09
1819.200  7.676E-09
1819.400  7.705E-09
1819.600  7.536E-09
1819.800  7.696E-09
1820.000  7.543E-09
1820.200  6.692E-09
1820.400  7.115E-09
1820.600  7.643E-09
1820.800  6.926E-09
1821.000  7.636E-09
1821.200  7.757E-09
1821.400  7.789E-09
1821.600  7.748E-09
1821.800  7.640E-09
1822.000  7.255E-09
1822.200  7.338E-09
1822.400  7.475E-09
1822.600  7.659E-09
1822.800  7.473E-09
1823.000  7.566E-09
1823.200  7.678E-09
1823.400  7.650E-09
1823.600  7.582E-09
1823.800  6.422E-09
1824.000  7.226E-09
1824.200  7.718E-09
1824.400  7.687E-09
1824.600  7.629E-09
1824.800  7.589E-09
1825.000  7.480E-09
1825.200  7.403E-09
1825.400  7.676E-09
1825.600  7.684E-09
1825.800  7.479E-09
1826.000  7.652E-09
1826.200  6.597E-09
1826.400  7.562E-09
1826.600  7.716E-09
1826.800  7.543E-09
1827.000  7.533E-09
1827.200  7.578E-09
1827.400  7.597E-09
1827.600  7.380E-09
1827.800  6.003E-09
1828.000  7.550E-09
1828.200  7.508E-09
1828.400  7.256E-09
1828.600  7.249E-09
1828.800  7.122E-09
1829.000  7.362E-09
1829.200  7.485E-09
1829.400  7.582E-09
1829.600  7.595E-09
1829.800  7.334E-09
1830.000  7.361E-09
1830.200  6.794E-09
1830.400  7.116E-09
1830.600  7.166E-09
1830.800  6.389E-09
1831.000  7.285E-09
1831.200  6.384E-09
1831.400  7.579E-09
1831.600  7.100E-09
1831.800  6.494E-09
1832.000  6.391E-09
1832.200  7.201E-09
1832.400  6.881E-09
1832.600  7.495E-09
1832.800  7.502E-09
1833.000  6.262E-09
1833.200  7.116E-09
1833.400  7.373E-09
1833.600  6.879E-09
1833.800  7.374E-09
1834.000  7.495E-09
1834.200  7.553E-09
1834.400  7.550E-09
1834.600  7.539E-09
1834.800  7.327E-09
1835.000  7.550E-09
1835.200  7.625E-09
1835.400  7.158E-09
1835.600  7.438E-09
1835.800  6.215E-09
1836.000  7.428E-09
1836.200  7.279E-09
1836.400  7.153E-09
1836.600  7.575E-09
1836.800  7.557E-09
1837.000  7.418E-09
1837.200  7.375E-09
1837.400  7.307E-09
1837.600  7.372E-09
1837.800  7.273E-09
1838.000  6.889E-09
1838.200  7.368E-09
1838.400  7.424E-09
1838.600  7.565E-09
1838.800  7.544E-09
1839.000  7.568E-09
1839.200  7.452E-09
1839.400  6.309E-09
1839.600  6.374E-09
1839.800  6.314E-09
1840.000  5.788E-09
1840.200  7.371E-09
1840.400  7.428E-09
1840.600  7.520E-09
1840.800  7.554E-09
1841.000  7.249E-09
1841.200  7.161E-09
1841.400  5.778E-09
1841.600  5.229E-09
1841.800  5.866E-09
1842.000  6.421E-09
1842.200  6.886E-09
1842.400  7.302E-09
1842.600  7.398E-09
1842.800  6.295E-09
1843.000  5.944E-09
1843.200  6.787E-09
1843.400  6.792E-09
1843.600  7.071E-09
1843.800  6.921E-09
1844.000  7.183E-09
1844.200  7.187E-09
1844.400  7.406E-09
1844.600  7.099E-09
1844.800  7.096E-09
1845.000  6.468E-09
1845.200  7.152E-09
1845.400  6.913E-09
1845.600  7.551E-09
1845.800  7.492E-09
1846.000  5.896E-09
1846.200  6.984E-09
1846.400  7.231E-09
1846.600  5.236E-09
1846.800  6.622E-09
1847.000  7.304E-09
1847.200  7.299E-09
1847.400  6.193E-09
1847.600  6.766E-09
1847.800  5.931E-09
1848.000  5.628E-09
1848.200  7.149E-09
1848.400  7.382E-09
1848.600  6.550E-09
1848.800  7.468E-09
1849.000  7.538E-09
1849.200  7.398E-09
1849.400  7.504E-09
1849.600  7.543E-09
1849.800  7.377E-09
1850.000  7.408E-09
1850.200  7.373E-09
1850.400  7.374E-09
1850.600  5.737E-09
1850.800  7.055E-09
1851.000  7.361E-09
1851.200  7.249E-09
1851.400  6.526E-09
1851.600  6.751E-09
1851.800  7.320E-09
1852.000  7.266E-09
1852.200  6.869E-09
1852.400  6.174E-09
1852.600  7.040E-09
1852.800  6.595E-09
1853.000  6.846E-09
1853.200  6.386E-09
1853.400  7.423E-09
1853.600  7.300E-09
1853.800  7.229E-09
1854.000  7.229E-09
1854.200  6.964E-09
1854.400  7.125E-09
1854.600  6.136E-09
1854.800  6.985E-09
1855.000  6.841E-09
1855.200  7.272E-09
1855.400  7.238E-09
1855.600  7.329E-09
1855.800  7.156E-09
1856.000  7.119E-09
1856.200  7.119E-09
1856.400  7.370E-09
1856.600  7.297E-09
1856.800  7.152E-09
1857.000  7.263E-09
1857.200  7.360E-09
1857.400  7.300E-09
1857.600  7.204E-09
1857.800  6.995E-09
1858.000  7.017E-09
1858.200  7.431E-09
1858.400  6.885E-09
1858.600  6.829E-09
1858.800  7.254E-09
1859.000  7.426E-09
1859.200  7.320E-09
1859.400  6.824E-09
1859.600  6.045E-09
1859.800  6.687E-09
1860.000  4.997E-09
1860.200  7.230E-09
1860.400  7.235E-09
1860.600  7.163E-09
1860.800  6.728E-09
1861.000  7.255E-09
1861.200  7.424E-09
1861.400  7.243E-09
1861.600  6.620E-09
1861.800  7.461E-09
1862.000  7.450E-09
1862.200  6.971E-09
1862.400  6.128E-09
1862.600  6.596E-09
1862.800  7.051E-09
1863.000  7.012E-09
1863.200  7.218E-09
1863.400  7.226E-09
1863.600  7.111E-09
1863.800  7.088E-09
1864.000  7.345E-09
1864.200  7.261E-09
1864.400  6.158E-09
1864.600  4.915E-09
1864.800  7.355E-09
1865.000  7.427E-09
1865.200  7.144E-09
1865.400  6.888E-09
1865.600  6.619E-09
1865.800  6.896E-09
1866.000  6.928E-09
1866.200  6.595E-09
1866.400  7.241E-09
1866.600  7.200E-09
1866.800  7.046E-09
1867.000  6.691E-09
1867.200  6.745E-09
1867.400  7.146E-09
1867.600  6.588E-09
1867.800  6.543E-09
1868.000  7.292E-09
1868.200  7.033E-09
1868.400  7.195E-09
1868.600  6.486E-09
1868.800  7.213E-09
1869.000  7.079E-09
1869.200  7.079E-09
1869.400  7.053E-09
1869.600  6.656E-09
1869.800  7.182E-09
1870.000  7.066E-09
1870.200  7.089E-09
1870.400  7.038E-09
1870.600  6.836E-09
1870.800  7.162E-09
1871.000  6.448E-09
1871.200  7.222E-09
1871.400  7.346E-09
1871.600  7.308E-09
1871.800  7.191E-09
1872.000  7.190E-09
1872.200  6.827E-09
1872.400  6.958E-09
1872.600  6.414E-09
1872.800  6.977E-09
1873.000  6.565E-09
1873.200  7.010E-09
1873.400  7.296E-09
1873.600  7.261E-09
1873.800  7.312E-09
1874.000  7.325E-09
1874.200  7.322E-09
1874.400  7.320E-09
1874.600  7.146E-09
1874.800  6.337E-09
1875.000  6.157E-09
1875.200  6.955E-09
1875.400  7.010E-09
1875.600  7.160E-09
1875.800  7.234E-09
1876.000  7.245E-09
1876.200  6.844E-09
1876.400  6.991E-09
1876.600  7.124E-09
1876.800  5.412E-09
1877.000  7.014E-09
1877.200  7.081E-09
1877.400  6.167E-09
1877.600  7.088E-09
1877.800  7.136E-09
1878.000  6.718E-09
1878.200  6.812E-09
1878.400  7.136E-09
1878.600  7.256E-09
1878.800  7.105E-09
1879.000  7.213E-09
1879.200  7.261E-09
1879.400  7.234E-09
1879.600  6.878E-09
1879.800  6.885E-09
1880.000  6.585E-09
1880.200  7.223E-09
1880.400  7.223E-09
1880.600  7.199E-09
1880.800  7.217E-09
1881.000  5.028E-09
1881.200  6.922E-09
1881.400  7.078E-09
1881.600  7.369E-09
1881.800  6.339E-09
1882.000  7.320E-09
1882.200  7.335E-09
1882.400  7.311E-09
1882.600  7.291E-09
1882.800  7.298E-09
1883.000  7.222E-09
1883.200  7.218E-09
1883.400  7.248E-09
1883.600  7.068E-09
1883.800  7.067E-09
1884.000  7.092E-09
1884.200  7.249E-09
1884.400  7.276E-09
1884.600  6.953E-09
1884.800  7.138E-09
1885.000  7.090E-09
1885.200  7.212E-09
1885.400  7.154E-09
1885.600  6.648E-09
1885.800  7.110E-09
1886.000  6.570E-09
1886.200  7.298E-09
1886.400  7.381E-09
1886.600  7.278E-09
1886.800  7.285E-09
1887.000  7.288E-09
1887.200  7.169E-09
1887.400  7.030E-09
1887.600  6.995E-09
1887.800  6.642E-09
1888.000  6.877E-09
1888.200  7.018E-09
1888.400  7.327E-09
1888.600  6.922E-09
1888.800  6.192E-09
1889.000  7.100E-09
1889.200  7.162E-09
1889.400  7.145E-09
1889.600  7.103E-09
1889.800  7.126E-09
1890.000  7.210E-09
1890.200  6.830E-09
1890.400  7.071E-09
1890.600  7.156E-09
1890.800  7.295E-09
1891.000  7.181E-09
1891.200  6.916E-09
1891.400  7.056E-09
1891.600  7.206E-09
1891.800  7.180E-09
1892.000  6.222E-09
1892.200  7.029E-09
1892.400  7.142E-09
1892.600  7.128E-09
1892.800  7.103E-09
1893.000  7.185E-09
1893.200  6.557E-09
1893.400  6.980E-09
1893.600  6.944E-09
1893.800  7.131E-09
1894.000  7.094E-09
1894.200  7.312E-09
1894.400  7.331E-09
1894.600  7.368E-09
1894.800  7.367E-09
1895.000  7.339E-09
1895.200  7.238E-09
1895.400  6.556E-09
1895.600  6.195E-09
1895.800  7.430E-09
1896.000  7.076E-09
1896.200  7.005E-09
1896.400  7.369E-09
1896.600  7.394E-09
1896.800  7.173E-09
1897.000  7.101E-09
1897.200  6.829E-09
1897.400  5.790E-09
1897.600  7.172E-09
1897.800  7.279E-09
1898.000  7.150E-09
1898.200  7.181E-09
1898.400  6.992E-09
1898.600  6.940E-09
1898.800  6.893E-09
1899.000  6.834E-09
1899.200  6.300E-09
1899.400  7.319E-09
1899.600  7.334E-09
1899.800  7.246E-09
1900.000  7.034E-09
1900.200  6.308E-09
1900.400  7.208E-09
1900.600  7.139E-09
1900.800  6.596E-09
1901.000  7.166E-09
1901.200  7.040E-09
1901.400  6.922E-09
1901.600  6.959E-09
1901.800  6.288E-09
1902.000  6.972E-09
1902.200  7.137E-09
1902.400  7.020E-09
1902.600  7.236E-09
1902.800  7.230E-09
1903.000  6.973E-09
1903.200  6.896E-09
1903.400  7.242E-09
1903.600  7.319E-09
1903.800  7.305E-09
1904.000  7.333E-09
1904.200  7.315E-09
1904.400  7.262E-09
1904.600  6.981E-09
1904.800  7.111E-09
1905.000  7.289E-09
1905.200  6.730E-09
1905.400  6.469E-09
1905.600  6.438E-09
1905.800  7.228E-09
1906.000  7.289E-09
1906.200  7.095E-09
1906.400  6.549E-09
1906.600  6.833E-09
1906.800  7.215E-09
1907.000  7.260E-09
1907.200  7.227E-09
1907.400  7.107E-09
1907.600  7.055E-09
1907.800  6.382E-09
1908.000  6.811E-09
1908.200  6.988E-09
1908.400  7.025E-09
1908.600  7.179E-09
1908.800  7.026E-09
1909.000  7.147E-09
1909.200  7.151E-09
1909.400  7.288E-09
1909.600  5.840E-09
1909.800  6.375E-09
1910.000  6.972E-09
1910.200  7.118E-09
1910.400  6.519E-09
1910.600  6.110E-09
1910.800  6.562E-09
1911.000  7.003E-09
1911.200  6.836E-09
1911.400  5.671E-09
1911.600  6.972E-09
1911.800  7.080E-09
1912.000  7.135E-09
1912.200  7.239E-09
1912.400  7.186E-09
1912.600  7.249E-09
1912.800  7.286E-09
1913.000  7.314E-09
1913.200  7.371E-09
1913.400  7.298E-09
1913.600  7.176E-09
1913.800  7.176E-09
1914.000  6.568E-09
1914.200  7.012E-09
1914.400  6.826E-09
1914.600  6.312E-09
1914.800  7.158E-09
1915.000  6.283E-09
1915.200  6.382E-09
1915.400  7.098E-09
1915.600  7.090E-09
1915.800  7.168E-09
1916.000  7.200E-09
1916.200  7.166E-09
1916.400  7.265E-09
1916.600  7.278E-09
1916.800  7.162E-09
1917.000  7.263E-09
1917.200  7.003E-09
1917.400  6.654E-09
1917.600  7.205E-09
1917.800  7.304E-09
1918.000  6.560E-09
1918.200  6.605E-09
1918.400  6.649E-09
1918.600  6.831E-09
1918.800  6.892E-09
1919.000  7.140E-09
1919.200  7.221E-09
1919.400  7.278E-09
1919.600  6.811E-09
1919.800  7.213E-09
1920.000  7.111E-09
1920.200  7.305E-09
1920.400  7.283E-09
1920.600  7.235E-09
1920.800  7.206E-09
1921.000  7.079E-09
1921.200  6.414E-09
1921.400  7.189E-09
1921.600  7.295E-09
1921.800  7.243E-09
1922.000  7.048E-09
1922.200  7.369E-09
1922.400  7.227E-09
1922.600  6.465E-09
1922.800  6.675E-09
1923.000  6.579E-09
1923.200  6.750E-09
1923.400  7.276E-09
1923.600  7.283E-09
1923.800  7.263E-09
1924.000  7.311E-09
1924.200  7.259E-09
1924.400  7.254E-09
1924.600  7.257E-09
1924.800  7.234E-09
1925.000  7.161E-09
1925.200  7.110E-09
1925.400  6.754E-09
1925.600  7.207E-09
1925.800  7.103E-09
1926.000  5.630E-09
1926.200  5.495E-09
1926.400  6.166E-09
1926.600  7.111E-09
1926.800  7.087E-09
1927.000  7.190E-09
1927.200  7.192E-09
1927.400  6.451E-09
1927.600  7.100E-09
1927.800  7.028E-09
1928.000  6.846E-09
1928.200  7.114E-09
1928.400  7.154E-09
1928.600  7.110E-09
1928.800  7.112E-09
1929.000  7.129E-09
1929.200  7.066E-09
1929.400  7.188E-09
1929.600  6.777E-09
1929.800  7.032E-09
1930.000  7.132E-09
1930.200  7.138E-09
1930.400  6.540E-09
1930.600  6.315E-09
1930.800  3.567E-09
1931.000  5.986E-09
1931.200  6.390E-09
1931.400  6.522E-09
1931.600  7.049E-09
1931.800  7.055E-09
1932.000  7.123E-09
1932.200  7.162E-09
1932.400  6.092E-09
1932.600  7.046E-09
1932.800  7.125E-09
1933.000  7.150E-09
1933.200  7.074E-09
1933.400  7.032E-09
1933.600  7.153E-09
1933.800  7.042E-09
1934.000  7.194E-09
1934.200  7.269E-09
1934.400  6.998E-09
1934.600  6.743E-09
1934.800  6.999E-09
1935.000  6.988E-09
1935.200  6.423E-09
1935.400  6.970E-09
1935.600  7.029E-09
1935.800  7.119E-09
1936.000  7.065E-09
1936.200  7.246E-09
1936.400  7.116E-09
1936.600  6.838E-09
1936.800  6.887E-09
1937.000  6.999E-09
1937.200  6.692E-09
1937.400  6.750E-09
1937.600  7.200E-09
1937.800  7.154E-09
1938.000  7.126E-09
1938.200  7.008E-09
1938.400  6.946E-09
1938.600  6.894E-09
1938.800  6.915E-09
1939.000  7.061E-09
1939.200  7.160E-09
1939.400  7.151E-09
1939.600  7.159E-09
1939.800  7.192E-09
1940.000  6.623E-09
1940.200  7.086E-09
1940.400  7.283E-09
1940.600  6.656E-09
1940.800  6.728E-09
1941.000  7.130E-09
1941.200  6.410E-09
1941.400  7.110E-09
1941.600  7.120E-09
1941.800  7.111E-09
1942.000  7.049E-09
1942.200  7.042E-09
1942.400  7.147E-09
1942.600  7.151E-09
1942.800  7.172E-09
1943.000  7.141E-09
1943.200  7.157E-09
1943.400  6.698E-09
1943.600  6.933E-09
1943.800  7.158E-09
1944.000  6.977E-09
1944.200  7.036E-09
1944.400  7.056E-09
1944.600  6.843E-09
1944.800  7.157E-09
1945.000  7.108E-09
1945.200  6.833E-09
1945.400  7.195E-09
1945.600  7.191E-09
1945.800  7.105E-09
1946.000  7.177E-09
1946.200  7.085E-09
1946.400  7.073E-09
1946.600  7.133E-09
1946.800  7.018E-09
1947.000  6.993E-09
1947.200  7.190E-09
1947.400  7.152E-09
1947.600  7.079E-09
1947.800  7.067E-09
1948.000  7.103E-09
1948.200  7.043E-09
1948.400  6.921E-09
1948.600  6.898E-09
1948.800  6.584E-09
1949.000  7.056E-09
1949.200  7.146E-09
1949.400  7.080E-09
1949.600  6.528E-09
1949.800  7.035E-09
1950.000  6.301E-09
1950.200  6.560E-09
1950.400  7.250E-09
1950.600  7.234E-09
1950.800  7.175E-09
1951.000  7.259E-09
1951.200  7.260E-09
1951.400  7.142E-09
1951.600  7.083E-09
1951.800  7.048E-09
1952.000  7.126E-09
1952.200  6.848E-09
1952.400  6.642E-09
1952.600  6.890E-09
1952.800  7.103E-09
1953.000  6.841E-09
1953.200  6.841E-09
1953.400  6.855E-09
1953.600  7.067E-09
1953.800  7.070E-09
1954.000  7.104E-09
1954.200  7.046E-09
1954.400  7.097E-09
1954.600  6.642E-09
1954.800  6.786E-09
1955.000  7.131E-09
1955.200  7.200E-09
1955.400  7.081E-09
1955.600  6.673E-09
1955.800  6.907E-09
1956.000  6.334E-09
1956.200  7.135E-09
1956.400  7.148E-09
1956.600  7.164E-09
1956.800  7.230E-09
1957.000  7.171E-09
1957.200  7.119E-09
1957.400  6.961E-09
1957.600  7.141E-09
1957.800  6.522E-09
1958.000  6.733E-09
1958.200  7.003E-09
1958.400  6.984E-09
1958.600  6.851E-09
1958.800  6.863E-09
1959.000  6.990E-09
1959.200  6.803E-09
1959.400  7.119E-09
1959.600  7.103E-09
1959.800  7.207E-09
1960.000  7.098E-09
1960.200  6.779E-09
1960.400  7.129E-09
1960.600  7.185E-09
1960.800  7.134E-09
1961.000  7.100E-09
1961.200  6.585E-09
1961.400  6.997E-09
1961.600  7.122E-09
1961.800  7.076E-09
1962.000  6.565E-09
1962.200  7.043E-09
1962.400  7.054E-09
1962.600  6.378E-09
1962.800  6.674E-09
1963.000  6.730E-09
1963.200  7.086E-09
1963.400  7.116E-09
1963.600  6.994E-09
1963.800  6.974E-09
1964.000  6.865E-09
1964.200  6.868E-09
1964.400  6.214E-09
1964.600  6.926E-09
1964.800  7.073E-09
1965.000  7.112E-09
1965.200  7.054E-09
1965.400  6.817E-09
1965.600  6.938E-09
1965.800  6.844E-09
1966.000  6.597E-09
1966.200  7.130E-09
1966.400  7.124E-09
1966.600  7.082E-09
1966.800  7.131E-09
1967.000  7.087E-09
1967.200  7.057E-09
1967.400  7.078E-09
1967.600  6.822E-09
1967.800  6.818E-09
1968.000  5.814E-09
1968.200  7.006E-09
1968.400  7.069E-09
1968.600  6.615E-09
1968.800  6.174E-09
1969.000  7.068E-09
1969.200  6.934E-09
1969.400  7.053E-09
1969.600  6.946E-09
1969.800  6.834E-09
1970.000  6.977E-09
1970.200  6.946E-09
1970.400  6.743E-09
1970.600  6.462E-09
1970.800  6.930E-09
1971.000  6.818E-09
1971.200  6.926E-09
1971.400  7.077E-09
1971.600  7.022E-09
1971.800  6.958E-09
1972.000  6.987E-09
1972.200  7.016E-09
1972.400  6.980E-09
1972.600  6.993E-09
1972.800  7.050E-09
1973.000  7.036E-09
1973.200  6.901E-09
1973.400  7.046E-09
1973.600  7.082E-09
1973.800  7.062E-09
1974.000  6.914E-09
1974.200  6.946E-09
1974.400  6.252E-09
1974.600  6.767E-09
1974.800  6.794E-09
1975.000  6.941E-09
1975.200  6.947E-09
1975.400  6.850E-09
1975.600  6.857E-09
1975.800  7.016E-09
1976.000  7.027E-09
1976.200  7.023E-09
1976.400  7.010E-09
1976.600  6.934E-09
1976.800  6.728E-09
1977.000  7.054E-09
1977.200  7.022E-09
1977.400  6.948E-09
1977.600  6.885E-09
1977.800  7.075E-09
1978.000  7.022E-09
1978.200  7.037E-09
1978.400  6.826E-09
1978.600  6.942E-09
1978.800  6.729E-09
1979.000  6.515E-09
1979.200  6.898E-09
1979.400  7.011E-09
1979.600  6.809E-09
1979.800  6.404E-09
1980.000  6.921E-09
1980.200  6.994E-09
1980.400  6.953E-09
1980.600  6.466E-09
1980.800  6.998E-09
1981.000  7.009E-09
1981.200  7.037E-09
1981.400  7.050E-09
1981.600  6.935E-09
1981.800  6.986E-09
1982.000  6.974E-09
1982.200  7.009E-09
1982.400  7.081E-09
1982.600  6.947E-09
1982.800  6.799E-09
1983.000  6.081E-09
1983.200  6.444E-09
1983.400  6.812E-09
1983.600  6.911E-09
1983.800  6.911E-09
1984.000  6.518E-09
1984.200  6.911E-09
1984.400  7.007E-09
1984.600  7.064E-09
1984.800  6.874E-09
1985.000  6.744E-09
1985.200  6.801E-09
1985.400  6.753E-09
1985.600  6.728E-09
1985.800  6.968E-09
1986.000  6.869E-09
1986.200  6.776E-09
1986.400  6.804E-09
1986.600  6.964E-09
1986.800  6.907E-09
1987.000  6.789E-09
1987.200  6.948E-09
1987.400  6.846E-09
1987.600  6.940E-09
1987.800  6.850E-09
1988.000  6.990E-09
1988.200  7.013E-09
1988.400  6.989E-09
1988.600  7.040E-09
1988.800  6.834E-09
1989.000  6.941E-09
1989.200  6.967E-09
1989.400  6.802E-09
1989.600  6.828E-09
1989.800  6.443E-09
1990.000  6.458E-09
1990.200  6.566E-09
1990.400  6.427E-09
1990.600  6.366E-09
1990.800  6.755E-09
1991.000  6.811E-09
1991.200  6.396E-09
1991.400  6.854E-09
1991.600  6.523E-09
1991.800  6.622E-09
1992.000  6.741E-09
1992.200  6.842E-09
1992.400  6.951E-09
1992.600  6.941E-09
1992.800  6.936E-09
1993.000  6.937E-09
1993.200  6.591E-09
1993.400  6.485E-09
1993.600  6.033E-09
1993.800  6.039E-09
1994.000  6.295E-09
1994.200  6.773E-09
1994.400  6.853E-09
1994.600  6.889E-09
1994.800  6.437E-09
1995.000  6.572E-09
1995.200  6.542E-09
1995.400  6.443E-09
1995.600  6.414E-09
1995.800  6.891E-09
1996.000  6.884E-09
1996.200  6.926E-09
1996.400  6.663E-09
1996.600  6.751E-09
1996.800  6.754E-09
1997.000  6.802E-09
1997.200  6.826E-09
1997.400  6.839E-09
1997.600  6.934E-09
1997.800  6.932E-09
1998.000  6.871E-09
1998.200  6.912E-09
1998.400  6.885E-09
1998.600  6.906E-09
1998.800  6.896E-09
1999.000  6.791E-09
1999.200  6.348E-09
1999.400  5.743E-09
1999.600  5.784E-09
1999.800  6.606E-09
2000.000  6.825E-09
2000.200  6.730E-09
2000.400  6.732E-09
2000.600  6.839E-09
2000.800  6.815E-09
2001.000  6.040E-09
2001.200  6.663E-09
2001.400  6.616E-09
2001.600  6.869E-09
2001.800  6.812E-09
2002.000  6.846E-09
2002.200  6.857E-09
2002.400  6.687E-09
2002.600  6.878E-09
2002.800  6.882E-09
2003.000  6.917E-09
2003.200  6.799E-09
2003.400  6.421E-09
2003.600  6.243E-09
2003.800  6.772E-09
2004.000  6.817E-09
2004.200  6.851E-09
2004.400  6.676E-09
2004.600  6.294E-09
2004.800  6.013E-09
2005.000  6.586E-09
2005.200  6.927E-09
2005.400  6.804E-09
2005.600  6.740E-09
2005.800  6.816E-09
2006.000  6.786E-09
2006.200  6.824E-09
2006.400  6.788E-09
2006.600  6.869E-09
2006.800  6.861E-09
2007.000  6.800E-09
2007.200  6.651E-09
2007.400  6.616E-09
2007.600  5.085E-09
2007.800  5.737E-09
2008.000  5.570E-09
2008.200  5.817E-09
2008.400  6.719E-09
2008.600  6.854E-09
2008.800  6.866E-09
2009.000  6.801E-09
2009.200  6.883E-09
2009.400  6.870E-09
2009.600  6.865E-09
2009.800  6.874E-09
2010.000  6.930E-09
2010.200  7.010E-09
2010.400  7.016E-09
2010.600  6.537E-09
2010.800  6.862E-09
2011.000  6.912E-09
2011.200  6.540E-09
2011.400  5.230E-09
2011.600  4.378E-09
2011.800  6.665E-09
2012.000  6.677E-09
2012.200  6.616E-09
2012.400  6.665E-09
2012.600  6.494E-09
2012.800  6.110E-09
2013.000  6.182E-09
2013.200  6.167E-09
2013.400  6.831E-09
2013.600  6.825E-09
2013.800  6.138E-09
2014.000  6.753E-09
2014.200  6.087E-09
2014.400  6.609E-09
2014.600  6.654E-09
2014.800  6.412E-09
2015.000  6.744E-09
2015.200  6.778E-09
2015.400  6.780E-09
2015.600  6.790E-09
2015.800  6.641E-09
2016.000  6.274E-09
2016.200  6.632E-09
2016.400  6.696E-09
2016.600  6.056E-09
2016.800  6.835E-09
2017.000  6.841E-09
2017.200  6.783E-09
2017.400  6.770E-09
2017.600  5.483E-09
2017.800  6.784E-09
2018.000  6.873E-09
2018.200  6.871E-09
2018.400  6.297E-09
2018.600  6.867E-09
2018.800  6.831E-09
2019.000  6.805E-09
2019.200  6.732E-09
2019.400  5.732E-09
2019.600  5.758E-09
2019.800  6.759E-09
2020.000  6.823E-09
2020.200  6.797E-09
2020.400  6.288E-09
2020.600  6.687E-09
2020.800  6.703E-09
2021.000  6.741E-09
2021.200  6.688E-09
2021.400  5.536E-09
2021.600  6.443E-09
2021.800  6.722E-09
2022.000  6.652E-09
2022.200  6.383E-09
2022.400  6.617E-09
2022.600  6.609E-09
2022.800  6.192E-09
2023.000  6.632E-09
2023.200  6.819E-09
2023.400  6.832E-09
2023.600  6.606E-09
2023.800  6.756E-09
2024.000  6.777E-09
2024.200  6.606E-09
2024.400  6.746E-09
2024.600  6.712E-09
2024.800  6.781E-09
2025.000  6.747E-09
2025.200  6.721E-09
2025.400  6.846E-09
2025.600  6.771E-09
2025.800  6.681E-09
2026.000  5.994E-09
2026.200  3.904E-09
2026.400  5.560E-09
2026.600  6.748E-09
2026.800  6.742E-09
2027.000  6.680E-09
2027.200  6.583E-09
2027.400  6.710E-09
2027.600  5.976E-09
2027.800  6.738E-09
2028.000  6.801E-09
2028.200  6.771E-09
2028.400  6.570E-09
2028.600  6.798E-09
2028.800  6.491E-09
2029.000  6.769E-09
2029.200  6.766E-09
2029.400  6.733E-09
2029.600  6.545E-09
2029.800  6.176E-09
2030.000  6.732E-09
2030.200  6.735E-09
2030.400  6.738E-09
2030.600  6.735E-09
2030.800  6.658E-09
2031.000  6.668E-09
2031.200  6.526E-09
2031.400  6.698E-09
2031.600  6.688E-09
2031.800  6.450E-09
2032.000  6.596E-09
2032.200  6.596E-09
2032.400  6.700E-09
2032.600  6.256E-09
2032.800  6.337E-09
2033.000  5.200E-09
2033.200  5.931E-09
2033.400  6.522E-09
2033.600  6.720E-09
2033.800  6.718E-09
2034.000  6.349E-09
2034.200  6.476E-09
2034.400  6.458E-09
2034.600  6.651E-09
2034.800  6.675E-09
2035.000  6.088E-09
2035.200  6.140E-09
2035.400  6.413E-09
2035.600  6.496E-09
2035.800  6.632E-09
2036.000  6.507E-09
2036.200  6.688E-09
2036.400  6.253E-09
2036.600  6.699E-09
2036.800  6.692E-09
2037.000  5.580E-09
2037.200  6.381E-09
2037.400  6.618E-09
2037.600  6.466E-09
2037.800  5.401E-09
2038.000  6.504E-09
2038.200  6.412E-09
2038.400  6.480E-09
2038.600  6.667E-09
2038.800  6.699E-09
2039.000  6.701E-09
2039.200  6.563E-09
2039.400  6.670E-09
2039.600  6.675E-09
2039.800  6.619E-09
2040.000  6.240E-09
2040.200  6.095E-09
2040.400  6.090E-09
2040.600  6.617E-09
2040.800  6.767E-09
2041.000  6.382E-09
2041.200  6.186E-09
2041.400  6.256E-09
2041.600  6.102E-09
2041.800  6.666E-09
2042.000  6.419E-09
2042.200  5.957E-09
2042.400  6.187E-09
2042.600  6.629E-09
2042.800  6.638E-09
2043.000  6.634E-09
2043.200  6.649E-09
2043.400  6.666E-09
2043.600  6.659E-09
2043.800  6.323E-09
2044.000  6.569E-09
2044.200  6.629E-09
2044.400  6.045E-09
2044.600  6.616E-09
2044.800  6.665E-09
2045.000  6.624E-09
2045.200  6.598E-09
2045.400  6.626E-09
2045.600  6.591E-09
2045.800  6.572E-09
2046.000  6.654E-09
2046.200  6.655E-09
2046.400  6.631E-09
2046.600  6.623E-09
2046.800  6.655E-09
2047.000  6.514E-09
2047.200  6.626E-09
2047.400  6.670E-09
2047.600  6.252E-09
2047.800  6.485E-09
2048.000  6.623E-09
2048.200  6.623E-09
2048.400  6.577E-09
2048.600  6.633E-09
2048.800  6.661E-09
2049.000  6.484E-09
2049.200  6.514E-09
2049.400  6.617E-09
2049.600  6.629E-09
2049.800  6.551E-09
2050.000  6.565E-09
2050.200  6.388E-09
2050.400  6.538E-09
2050.600  6.597E-09
2050.800  6.608E-09
2051.000  6.632E-09
2051.200  6.632E-09
2051.400  6.465E-09
2051.600  5.358E-09
2051.800  6.599E-09
2052.000  6.606E-09
2052.200  6.670E-09
2052.400  6.690E-09
2052.600  6.590E-09
2052.800  6.485E-09
2053.000  6.687E-09
2053.200  6.703E-09
2053.400  6.581E-09
2053.600  6.603E-09
2053.800  6.460E-09
2054.000  6.616E-09
2054.200  6.586E-09
2054.400  6.607E-09
2054.600  6.601E-09
2054.800  6.386E-09
2055.000  5.670E-09
2055.200  5.988E-09
2055.400  5.587E-09
2055.600  6.081E-09
2055.800  5.913E-09
2056.000  5.811E-09
2056.200  5.071E-09
2056.400  6.428E-09
2056.600  6.588E-09
2056.800  6.641E-09
2057.000  6.625E-09
2057.200  6.473E-09
2057.400  6.545E-09
2057.600  6.522E-09
2057.800  6.427E-09
2058.000  6.401E-09
2058.200  6.558E-09
2058.400  6.441E-09
2058.600  6.149E-09
2058.800  6.426E-09
2059.000  6.594E-09
2059.200  6.161E-09
2059.400  5.557E-09
2059.600  6.344E-09
2059.800  6.636E-09
2060.000  6.509E-09
2060.200  6.401E-09
2060.400  6.480E-09
2060.600  6.544E-09
2060.800  6.539E-09
2061.000  6.605E-09
2061.200  6.603E-09
2061.400  6.525E-09
2061.600  6.455E-09
2061.800  6.394E-09
2062.000  6.411E-09
2062.200  5.497E-09
2062.400  6.285E-09
2062.600  4.366E-09
2062.800  5.441E-09
2063.000  6.532E-09
2063.200  6.521E-09
2063.400  6.439E-09
2063.600  6.565E-09
2063.800  6.063E-09
2064.000  6.536E-09
2064.200  6.162E-09
2064.400  6.144E-09
2064.600  6.576E-09
2064.800  6.425E-09
2065.000  6.616E-09
2065.200  6.603E-09
2065.400  6.585E-09
2065.600  6.587E-09
2065.800  6.512E-09
2066.000  5.974E-09
2066.200  6.105E-09
2066.400  6.182E-09
2066.600  5.760E-09
2066.800  6.550E-09
2067.000  5.610E-09
2067.200  6.159E-09
2067.400  6.038E-09
2067.600  6.447E-09
2067.800  6.522E-09
2068.000  6.568E-09
2068.200  6.581E-09
2068.400  6.520E-09
2068.600  6.084E-09
2068.800  6.155E-09
2069.000  6.195E-09
2069.200  6.455E-09
2069.400  6.363E-09
2069.600  6.571E-09
2069.800  6.682E-09
2070.000  6.597E-09
2070.200  6.488E-09
2070.400  6.453E-09
2070.600  6.410E-09
2070.800  6.485E-09
2071.000  6.416E-09
2071.200  6.523E-09
2071.400  6.544E-09
2071.600  6.542E-09
2071.800  6.519E-09
2072.000  6.529E-09
2072.200  6.492E-09
2072.400  5.110E-09
2072.600  5.723E-09
2072.800  6.510E-09
2073.000  6.497E-09
2073.200  6.034E-09
2073.400  6.324E-09
2073.600  6.305E-09
2073.800  6.368E-09
2074.000  6.538E-09
2074.200  6.598E-09
2074.400  6.541E-09
2074.600  6.484E-09
2074.800  5.958E-09
2075.000  6.559E-09
2075.200  6.557E-09
2075.400  6.594E-09
2075.600  6.471E-09
2075.800  6.558E-09
2076.000  6.560E-09
2076.200  6.278E-09
2076.400  6.532E-09
2076.600  6.620E-09
2076.800  6.410E-09
2077.000  6.605E-09
2077.200  6.599E-09
2077.400  6.591E-09
2077.600  6.560E-09
2077.800  6.519E-09
2078.000  6.489E-09
2078.200  6.541E-09
2078.400  6.548E-09
2078.600  6.488E-09
2078.800  6.281E-09
2079.000  6.521E-09
2079.200  6.530E-09
2079.400  5.960E-09
2079.600  6.329E-09
2079.800  6.488E-09
2080.000  6.490E-09
2080.200  6.469E-09
2080.400  6.420E-09
2080.600  6.363E-09
2080.800  5.468E-09
2081.000  6.516E-09
2081.200  6.585E-09
2081.400  6.124E-09
2081.600  6.467E-09
2081.800  6.477E-09
2082.000  6.526E-09
2082.200  6.544E-09
2082.400  6.523E-09
2082.600  6.338E-09
2082.800  6.549E-09
2083.000  6.585E-09
2083.200  6.455E-09
2083.400  6.519E-09
2083.600  6.558E-09
2083.800  6.549E-09
2084.000  6.495E-09
2084.200  5.947E-09
2084.400  6.371E-09
2084.600  6.416E-09
2084.800  6.277E-09
2085.000  6.207E-09
2085.200  6.358E-09
2085.400  5.832E-09
2085.600  6.115E-09
2085.800  6.401E-09
2086.000  6.489E-09
2086.200  6.498E-09
2086.400  6.486E-09
2086.600  6.511E-09
2086.800  6.385E-09
2087.000  6.440E-09
2087.200  6.519E-09
2087.400  6.437E-09
2087.600  6.534E-09
2087.800  6.477E-09
2088.000  6.453E-09
2088.200  6.169E-09
2088.400  6.480E-09
2088.600  6.524E-09
2088.800  6.551E-09
2089.000  6.515E-09
2089.200  6.560E-09
2089.400  6.133E-09
2089.600  6.119E-09
2089.800  6.442E-09
2090.000  6.524E-09
2090.200  6.507E-09
2090.400  6.490E-09
2090.600  6.400E-09
2090.800  6.315E-09
2091.000  6.430E-09
2091.200  6.457E-09
2091.400  6.450E-09
2091.600  6.397E-09
2091.800  6.492E-09
2092.000  5.764E-09
2092.200  6.478E-09
2092.400  6.509E-09
2092.600  6.471E-09
2092.800  6.379E-09
2093.000  6.458E-09
2093.200  6.463E-09
2093.400  6.496E-09
2093.600  6.501E-09
2093.800  6.484E-09
2094.000  5.650E-09
2094.200  4.678E-09
2094.400  6.449E-09
2094.600  6.434E-09
2094.800  6.412E-09
2095.000  6.470E-09
2095.200  5.884E-09
2095.400  6.235E-09
2095.600  5.855E-09
2095.800  6.440E-09
2096.000  6.488E-09
2096.200  6.466E-09
2096.400  6.414E-09
2096.600  6.501E-09
2096.800  6.498E-09
2097.000  6.348E-09
2097.200  6.482E-09
2097.400  6.509E-09
2097.600  5.449E-09
2097.800  6.130E-09
2098.000  5.590E-09
2098.200  6.048E-09
2098.400  6.494E-09
2098.600  6.510E-09
2098.800  6.457E-09
2099.000  6.479E-09
2099.200  6.494E-09
2099.400  6.466E-09
2099.600  6.495E-09
2099.800  6.434E-09
2100.000  6.181E-09
2100.200  6.319E-09
2100.400  6.338E-09
2100.600  6.309E-09
2100.800  6.205E-09
2101.000  6.147E-09
2101.200  6.180E-09
2101.400  6.124E-09
2101.600  5.901E-09
2101.800  6.396E-09
2102.000  6.469E-09
2102.200  6.469E-09
2102.400  6.468E-09
2102.600  6.489E-09
2102.800  6.356E-09
2103.000  6.129E-09
2103.200  6.206E-09
2103.400  6.160E-09
2103.600  5.784E-09
2103.800  5.195E-09
2104.000  6.057E-09
2104.200  6.342E-09
2104.400  6.388E-09
2104.600  6.385E-09
2104.800  6.384E-09
2105.000  6.397E-09
2105.200  6.334E-09
2105.400  6.070E-09
2105.600  6.446E-09
2105.800  6.434E-09
2106.000  6.374E-09
2106.200  6.385E-09
2106.400  6.415E-09
2106.600  6.356E-09
2106.800  6.291E-09
2107.000  6.194E-09
2107.200  6.445E-09
2107.400  6.428E-09
2107.600  6.425E-09
2107.800  6.348E-09
2108.000  6.216E-09
2108.200  5.305E-09
2108.400  5.207E-09
2108.600  4.364E-09
2108.800  6.270E-09
2109.000  6.428E-09
2109.200  6.476E-09
2109.400  6.342E-09
2109.600  5.422E-09
2109.800  6.383E-09
2110.000  6.461E-09
2110.200  6.370E-09
2110.400  6.318E-09
2110.600  6.390E-09
2110.800  6.240E-09
2111.000  5.365E-09
2111.200  5.805E-09
2111.400  5.706E-09
2111.600  6.251E-09
2111.800  6.282E-09
2112.000  6.052E-09
2112.200  6.166E-09
2112.400  6.098E-09
2112.600  6.172E-09
2112.800  6.209E-09
2113.000  6.229E-09
2113.200  6.198E-09
2113.400  5.713E-09
2113.600  5.965E-09
2113.800  5.559E-09
2114.000  5.617E-09
2114.200  6.108E-09
2114.400  6.071E-09
2114.600  5.996E-09
2114.800  6.320E-09
2115.000  6.337E-09
2115.200  6.278E-09
2115.400  6.307E-09
2115.600  6.383E-09
2115.800  6.364E-09
2116.000  6.305E-09
2116.200  6.273E-09
2116.400  6.391E-09
2116.600  6.389E-09
2116.800  6.353E-09
2117.000  6.451E-09
2117.200  6.419E-09
2117.400  6.411E-09
2117.600  5.795E-09
2117.800  6.358E-09
2118.000  6.245E-09
2118.200  6.352E-09
2118.400  6.352E-09
2118.600  6.209E-09
2118.800  5.608E-09
2119.000  6.215E-09
2119.200  6.337E-09
2119.400  6.338E-09
2119.600  5.751E-09
2119.800  6.317E-09
2120.000  6.354E-09
2120.200  6.249E-09
2120.400  6.327E-09
2120.600  6.404E-09
2120.800  6.412E-09
2121.000  6.391E-09
2121.200  6.367E-09
2121.400  6.379E-09
2121.600  6.302E-09
2121.800  5.570E-09
2122.000  6.025E-09
2122.200  6.294E-09
2122.400  6.304E-09
2122.600  6.302E-09
2122.800  6.366E-09
2123.000  6.069E-09
2123.200  6.388E-09
2123.400  6.389E-09
2123.600  5.974E-09
2123.800  6.161E-09
2124.000  6.251E-09
2124.200  6.251E-09
2124.400  6.242E-09
2124.600  6.176E-09
2124.800  6.154E-09
2125.000  6.331E-09
2125.200  6.319E-09
2125.400  6.326E-09
2125.600  6.091E-09
2125.800  6.015E-09
2126.000  6.040E-09
2126.200  6.332E-09
2126.400  6.244E-09
2126.600  5.461E-09
2126.800  6.314E-09
2127.000  6.322E-09
2127.200  6.314E-09
2127.400  6.155E-09
2127.600  5.908E-09
2127.800  6.049E-09
2128.000  6.037E-09
2128.200  5.621E-09
2128.400  5.310E-09
2128.600  5.973E-09
2128.800  6.305E-09
2129.000  6.101E-09
2129.200  5.154E-09
2129.400  6.201E-09
2129.600  6.292E-09
2129.800  6.281E-09
2130.000  6.272E-09
2130.200  6.173E-09
2130.400  5.898E-09
2130.600  5.681E-09
2130.800  4.475E-09
2131.000  5.595E-09
2131.200  6.058E-09
2131.400  6.300E-09
2131.600  5.885E-09
2131.800  4.841E-09
2132.000  5.308E-09
2132.200  6.269E-09
2132.400  6.240E-09
2132.600  6.025E-09
2132.800  5.972E-09
2133.000  5.178E-09
2133.200  4.763E-09
2133.400  4.970E-09
2133.600  5.454E-09
2133.800  6.182E-09
2134.000  5.941E-09
2134.200  5.832E-09
2134.400  5.650E-09
2134.600  4.461E-09
2134.800  4.158E-09
2135.000  4.548E-09
2135.200  4.674E-09
2135.400  5.248E-09
2135.600  5.256E-09
2135.800  5.145E-09
2136.000  5.138E-09
2136.200  6.060E-09
2136.400  6.062E-09
2136.600  5.439E-09
2136.800  6.060E-09
2137.000  6.048E-09
2137.200  6.218E-09
2137.400  6.298E-09
2137.600  6.322E-09
2137.800  6.265E-09
2138.000  6.312E-09
2138.200  6.310E-09
2138.400  5.636E-09
2138.600  5.603E-09
2138.800  6.092E-09
2139.000  6.117E-09
2139.200  5.261E-09
2139.400  5.791E-09
2139.600  6.032E-09
2139.800  5.983E-09
2140.000  5.474E-09
2140.200  5.080E-09
2140.400  5.820E-09
2140.600  5.798E-09
2140.800  6.099E-09
2141.000  6.200E-09
2141.200  6.199E-09
2141.400  6.321E-09
2141.600  5.891E-09
2141.800  6.277E-09
2142.000  6.264E-09
2142.200  6.249E-09
2142.400  5.782E-09
2142.600  5.395E-09
2142.800  5.987E-09
2143.000  6.035E-09
2143.200  6.208E-09
2143.400  6.153E-09
2143.600  5.502E-09
2143.800  6.184E-09
2144.000  6.189E-09
2144.200  6.169E-09
2144.400  6.178E-09
2144.600  6.074E-09
2144.800  5.855E-09
2145.000  5.686E-09
2145.200  6.238E-09
2145.400  6.271E-09
2145.600  6.211E-09
2145.800  6.102E-09
2146.000  6.129E-09
2146.200  6.169E-09
2146.400  6.206E-09
2146.600  5.199E-09
2146.800  5.659E-09
2147.000  5.718E-09
2147.200  5.926E-09
2147.400  6.133E-09
2147.600  6.085E-09
2147.800  5.461E-09
2148.000  6.210E-09
2148.200  6.152E-09
2148.400  6.051E-09
2148.600  6.269E-09
2148.800  6.183E-09
2149.000  6.201E-09
2149.200  5.514E-09
2149.400  6.057E-09
2149.600  5.652E-09
2149.800  6.216E-09
2150.000  6.228E-09
2150.200  6.249E-09
2150.400  6.281E-09
2150.600  6.178E-09
2150.800  6.047E-09
2151.000  6.135E-09
2151.200  5.396E-09
2151.400  5.380E-09
2151.600  5.495E-09
2151.800  6.031E-09
2152.000  6.258E-09
2152.200  6.203E-09
2152.400  6.121E-09
2152.600  6.226E-09
2152.800  6.195E-09
2153.000  5.525E-09
2153.200  6.198E-09
2153.400  6.168E-09
2153.600  6.092E-09
2153.800  6.194E-09
2154.000  6.148E-09
2154.200  5.875E-09
2154.400  5.891E-09
2154.600  6.214E-09
2154.800  6.255E-09
2155.000  6.067E-09
2155.200  6.073E-09
2155.400  6.138E-09
2155.600  6.248E-09
2155.800  6.257E-09
2156.000  6.175E-09
2156.200  5.716E-09
2156.400  5.632E-09
2156.600  6.140E-09
2156.800  6.030E-09
2157.000  6.149E-09
2157.200  6.119E-09
2157.400  6.051E-09
2157.600  6.140E-09
2157.800  6.288E-09
2158.000  6.246E-09
2158.200  6.171E-09
2158.400  5.892E-09
2158.600  6.049E-09
2158.800  6.061E-09
2159.000  5.760E-09
2159.200  5.016E-09
2159.400  5.768E-09
2159.600  5.894E-09
2159.800  5.843E-09
2160.000  6.024E-09
2160.200  5.488E-09
2160.400  6.000E-09
2160.600  6.188E-09
2160.800  6.211E-09
2161.000  6.205E-09
2161.200  6.152E-09
2161.400  5.726E-09
2161.600  6.067E-09
2161.800  4.625E-09
2162.000  6.040E-09
2162.200  5.987E-09
2162.400  5.979E-09
2162.600  4.968E-09
2162.800  5.983E-09
2163.000  6.126E-09
2163.200  6.026E-09
2163.400  5.993E-09
2163.600  6.146E-09
2163.800  6.045E-09
2164.000  5.938E-09
2164.200  6.065E-09
2164.400  6.037E-09
2164.600  6.127E-09
2164.800  6.103E-09
2165.000  5.295E-09
2165.200  5.326E-09
2165.400  6.244E-09
2165.600  6.209E-09
2165.800  6.131E-09
2166.000  5.945E-09
2166.200  5.219E-09
2166.400  5.777E-09
2166.600  5.973E-09
2166.800  6.013E-09
2167.000  5.852E-09
2167.200  5.854E-09
2167.400  5.709E-09
2167.600  6.239E-09
2167.800  6.221E-09
2168.000  5.221E-09
2168.200  6.107E-09
2168.400  5.902E-09
2168.600  6.118E-09
2168.800  6.114E-09
2169.000  6.150E-09
2169.200  6.150E-09
2169.400  5.241E-09
2169.600  4.540E-09
2169.800  5.721E-09
2170.000  6.116E-09
2170.200  6.051E-09
2170.400  5.984E-09
2170.600  5.506E-09
2170.800  5.749E-09
2171.000  6.131E-09
2171.200  6.085E-09
2171.400  5.689E-09
2171.600  5.650E-09
2171.800  5.506E-09
2172.000  5.897E-09
2172.200  5.952E-09
2172.400  6.241E-09
2172.600  6.109E-09
2172.800  6.092E-09
2173.000  6.104E-09
2173.200  6.026E-09
2173.400  6.019E-09
2173.600  5.418E-09
2173.800  5.685E-09
2174.000  6.012E-09
2174.200  6.002E-09
2174.400  5.643E-09
2174.600  5.706E-09
2174.800  6.063E-09
2175.000  6.035E-09
2175.200  5.535E-09
2175.400  4.554E-09
2175.600  5.152E-09
2175.800  5.205E-09
2176.000  5.209E-09
2176.200  6.050E-09
2176.400  6.038E-09
2176.600  6.159E-09
2176.800  6.109E-09
2177.000  5.170E-09
2177.200  6.154E-09
2177.400  6.139E-09
2177.600  5.352E-09
2177.800  5.449E-09
2178.000  5.524E-09
2178.200  6.109E-09
2178.400  6.143E-09
2178.600  5.949E-09
2178.800  6.122E-09
2179.000  6.111E-09
2179.200  6.082E-09
2179.400  6.142E-09
2179.600  6.107E-09
2179.800  6.098E-09
2180.000  4.108E-09
2180.200  5.937E-09
2180.400  5.953E-09
2180.600  5.633E-09
2180.800  6.070E-09
2181.000  5.746E-09
2181.200  6.083E-09
2181.400  6.165E-09
2181.600  6.245E-09
2181.800  6.256E-09
2182.000  5.968E-09
2182.200  6.017E-09
2182.400  6.042E-09
2182.600  6.049E-09
2182.800  6.137E-09
2183.000  5.739E-09
2183.200  5.782E-09
2183.400  6.187E-09
2183.600  6.173E-09
2183.800  6.052E-09
2184.000  5.799E-09
2184.200  5.500E-09
2184.400  5.242E-09
2184.600  6.081E-09
2184.800  6.128E-09
2185.000  6.096E-09
2185.200  4.713E-09
2185.400  5.979E-09
2185.600  6.092E-09
2185.800  6.107E-09
2186.000  6.036E-09
2186.200  5.942E-09
2186.400  6.088E-09
2186.600  6.150E-09
2186.800  5.865E-09
2187.000  5.723E-09
2187.200  5.996E-09
2187.400  5.824E-09
2187.600  5.791E-09
2187.800  5.409E-09
2188.000  4.844E-09
2188.200  4.934E-09
2188.400  4.531E-09
2188.600  4.794E-09
2188.800  6.158E-09
2189.000  6.192E-09
2189.200  6.090E-09
2189.400  5.991E-09
2189.600  5.084E-09
2189.800  6.048E-09
2190.000  6.083E-09
2190.200  5.671E-09
2190.400  6.110E-09
2190.600  6.099E-09
2190.800  6.015E-09
2191.000  6.075E-09
2191.200  5.699E-09
2191.400  5.679E-09
2191.600  5.669E-09
2191.800  6.040E-09
2192.000  6.140E-09
2192.200  6.125E-09
2192.400  5.840E-09
2192.600  4.770E-09
2192.800  4.904E-09
2193.000  5.522E-09
2193.200  6.094E-09
2193.400  6.121E-09
2193.600  6.212E-09
2193.800  6.115E-09
2194.000  5.881E-09
2194.200  5.449E-09
2194.400  6.126E-09
2194.600  6.153E-09
2194.800  5.922E-09
2195.000  6.095E-09
2195.200  6.140E-09
2195.400  6.144E-09
2195.600  6.124E-09
2195.800  6.155E-09
2196.000  6.202E-09
2196.200  6.195E-09
2196.400  6.163E-09
2196.600  5.342E-09
2196.800  6.136E-09
2197.000  6.164E-09
2197.200  6.160E-09
2197.400  5.973E-09
2197.600  6.079E-09
2197.800  6.094E-09
2198.000  6.106E-09
2198.200  6.184E-09
2198.400  5.323E-09
2198.600  6.242E-09
2198.800  6.258E-09
2199.000  6.012E-09
2199.200  5.892E-09
2199.400  6.093E-09
2199.600  6.166E-09
2199.800  6.075E-09
2200.000  6.175E-09
2200.200  6.100E-09
2200.400  6.085E-09
2200.600  6.122E-09
2200.800  5.949E-09
2201.000  5.318E-09
2201.200  5.848E-09
2201.400  5.943E-09
2201.600  6.096E-09
2201.800  5.962E-09
2202.000  4.387E-09
2202.200  5.503E-09
2202.400  6.117E-09
2202.600  6.122E-09
2202.800  5.956E-09
2203.000  6.084E-09
2203.200  6.067E-09
2203.400  6.008E-09
2203.600  5.958E-09
2203.800  6.077E-09
2204.000  6.071E-09
2204.200  6.034E-09
2204.400  6.020E-09
2204.600  5.784E-09
2204.800  6.123E-09
2205.000  6.188E-09
2205.200  6.105E-09
2205.400  6.029E-09
2205.600  5.721E-09
2205.800  6.156E-09
2206.000  6.134E-09
2206.200  5.982E-09
2206.400  5.993E-09
2206.600  5.522E-09
2206.800  5.445E-09
2207.000  6.058E-09
2207.200  5.118E-09
2207.400  5.786E-09
2207.600  6.078E-09
2207.800  6.138E-09
2208.000  6.123E-09
2208.200  6.150E-09
2208.400  6.128E-09
2208.600  5.525E-09
2208.800  6.026E-09
2209.000  5.153E-09
2209.200  5.129E-09
2209.400  6.020E-09
2209.600  5.509E-09
2209.800  5.918E-09
2210.000  5.762E-09
2210.200  5.920E-09
2210.400  5.538E-09
2210.600  5.817E-09
2210.800  5.646E-09
2211.000  5.025E-09
2211.200  6.093E-09
2211.400  6.068E-09
2211.600  4.020E-09
2211.800  5.721E-09
2212.000  5.665E-09
2212.200  5.773E-09
2212.400  5.015E-09
2212.600  5.928E-09
2212.800  5.419E-09
2213.000  6.062E-09
2213.200  6.053E-09
2213.400  6.001E-09
2213.600  5.975E-09
2213.800  5.305E-09
2214.000  6.086E-09
2214.200  5.406E-09
2214.400  5.591E-09
2214.600  5.515E-09
2214.800  5.521E-09
2215.000  5.184E-09
2215.200  5.893E-09
2215.400  5.612E-09
2215.600  5.574E-09
2215.800  5.998E-09
2216.000  6.082E-09
2216.200  6.066E-09
2216.400  6.019E-09
2216.600  6.055E-09
2216.800  5.984E-09
2217.000  5.126E-09
2217.200  4.261E-09
2217.400  5.947E-09
2217.600  5.835E-09
2217.800  5.779E-09
2218.000  6.026E-09
2218.200  6.052E-09
2218.400  5.885E-09
2218.600  5.620E-09
2218.800  4.313E-09
2219.000  6.019E-09
2219.200  6.091E-09
2219.400  6.087E-09
2219.600  6.073E-09
2219.800  6.109E-09
2220.000  6.037E-09
2220.200  5.942E-09
2220.400  5.191E-09
2220.600  5.510E-09
2220.800  5.552E-09
2221.000  4.359E-09
2221.200  6.111E-09
2221.400  6.116E-09
2221.600  6.033E-09
2221.800  5.429E-09
2222.000  6.040E-09
2222.200  6.044E-09
2222.400  5.859E-09
2222.600  6.027E-09
2222.800  5.901E-09
2223.000  5.490E-09
2223.200  5.184E-09
2223.400  5.260E-09
2223.600  5.250E-09
2223.800  5.985E-09
2224.000  5.761E-09
2224.200  5.724E-09
2224.400  5.713E-09
2224.600  5.975E-09
2224.800  5.994E-09
2225.000  4.235E-09
2225.200  5.619E-09
2225.400  5.567E-09
2225.600  5.911E-09
2225.800  5.911E-09
2226.000  6.075E-09
2226.200  6.118E-09
2226.400  5.821E-09
2226.600  5.963E-09
2226.800  5.944E-09
2227.000  5.358E-09
2227.200  5.963E-09
2227.400  6.009E-09
2227.600  5.902E-09
2227.800  4.358E-09
2228.000  4.208E-09
2228.200  5.065E-09
2228.400  5.530E-09
2228.600  5.788E-09
2228.800  5.549E-09
2229.000  5.957E-09
2229.200  5.955E-09
2229.400  4.950E-09
2229.600  5.980E-09
2229.800  5.963E-09
2230.000  5.995E-09
2230.200  6.017E-09
2230.400  5.991E-09
2230.600  5.562E-09
2230.800  5.999E-09
2231.000  6.005E-09
2231.200  5.898E-09
2231.400  5.584E-09
2231.600  5.726E-09
2231.800  5.976E-09
2232.000  5.907E-09
2232.200  5.347E-09
2232.400  5.822E-09
2232.600  5.736E-09
2232.800  5.933E-09
2233.000  5.939E-09
2233.200  6.014E-09
2233.400  5.980E-09
2233.600  5.816E-09
2233.800  6.002E-09
2234.000  6.040E-09
2234.200  5.993E-09
2234.400  5.457E-09
2234.600  5.574E-09
2234.800  5.818E-09
2235.000  5.816E-09
2235.200  5.769E-09
2235.400  5.840E-09
2235.600  5.960E-09
2235.800  6.010E-09
2236.000  5.961E-09
2236.200  5.771E-09
2236.400  5.933E-09
2236.600  5.870E-09
2236.800  5.930E-09
2237.000  5.821E-09
2237.200  5.680E-09
2237.400  5.967E-09
2237.600  6.008E-09
2237.800  5.895E-09
2238.000  5.875E-09
2238.200  5.428E-09
2238.400  5.642E-09
2238.600  5.751E-09
2238.800  5.741E-09
2239.000  5.860E-09
2239.200  5.776E-09
2239.400  5.922E-09
2239.600  5.439E-09
2239.800  5.660E-09
2240.000  5.824E-09
2240.200  5.660E-09
2240.400  6.013E-09
2240.600  6.014E-09
2240.800  5.971E-09
2241.000  5.082E-09
2241.200  5.895E-09
2241.400  6.074E-09
2241.600  6.042E-09
2241.800  5.960E-09
2242.000  4.458E-09
2242.200  5.350E-09
2242.400  4.943E-09
2242.600  5.648E-09
2242.800  5.543E-09
2243.000  5.155E-09
2243.200  5.008E-09
2243.400  5.925E-09
2243.600  5.923E-09
2243.800  5.514E-09
2244.000  5.742E-09
2244.200  5.061E-09
2244.400  5.337E-09
2244.600  4.907E-09
2244.800  4.967E-09
2245.000  5.530E-09
2245.200  5.013E-09
2245.400  5.155E-09
2245.600  4.926E-09
2245.800  5.542E-09
2246.000  5.624E-09
2246.200  5.834E-09
2246.400  5.963E-09
2246.600  5.904E-09
2246.800  6.009E-09
2247.000  6.050E-09
2247.200  5.973E-09
2247.400  5.691E-09
2247.600  4.592E-09
2247.800  5.000E-09
2248.000  5.941E-09
2248.200  5.835E-09
2248.400  5.212E-09
2248.600  5.256E-09
2248.800  5.240E-09
2249.000  5.162E-09
2249.200  5.651E-09
2249.400  5.879E-09
2249.600  5.489E-09
2249.800  4.507E-09
2250.000  5.936E-09
2250.200  5.933E-09
2250.400  4.887E-09
2250.600  4.316E-09
2250.800  5.013E-09
2251.000  5.802E-09
2251.200  5.973E-09
2251.400  5.799E-09
2251.600  5.275E-09
2251.800  5.958E-09
2252.000  5.925E-09
2252.200  4.641E-09
2252.400  4.641E-09
2252.600  6.011E-09
2252.800  6.037E-09
2253.000  6.009E-09
2253.200  6.046E-09
2253.400  5.935E-09
2253.600  5.814E-09
2253.800  4.777E-09
2254.000  5.794E-09
2254.200  5.717E-09
2254.400  4.080E-09
2254.600  4.384E-09
2254.800  5.259E-09
2255.000  5.042E-09
2255.200  5.991E-09
2255.400  5.944E-09
2255.600  4.821E-09
2255.800  5.107E-09
2256.000  5.964E-09
2256.200  5.794E-09
2256.400  3.773E-09
2256.600  4.025E-09
2256.800  5.272E-09
2257.000  5.101E-09
2257.200  5.521E-09
2257.400  5.337E-09
2257.600  5.833E-09
2257.800  5.973E-09
2258.000  6.020E-09
2258.200  5.816E-09
2258.400  3.991E-09
2258.600  4.472E-09
2258.800  5.614E-09
2259.000  5.498E-09
2259.200  6.021E-09
2259.400  6.021E-09
2259.600  6.037E-09
2259.800  6.091E-09
2260.000  5.797E-09
2260.200  4.837E-09
2260.400  5.887E-09
2260.600  5.435E-09
2260.800  4.041E-09
2261.000  5.906E-09
2261.200  5.910E-09
2261.400  5.140E-09
2261.600  5.483E-09
2261.800  5.380E-09
2262.000  5.888E-09
2262.200  5.841E-09
2262.400  5.830E-09
2262.600  6.022E-09
2262.800  5.812E-09
2263.000  5.905E-09
2263.200  5.749E-09
2263.400  5.438E-09
2263.600  5.791E-09
2263.800  5.421E-09
2264.000  5.712E-09
2264.200  5.956E-09
2264.400  5.974E-09
2264.600  5.973E-09
2264.800  5.943E-09
2265.000  4.257E-09
2265.200  4.812E-09
2265.400  5.912E-09
2265.600  5.755E-09
2265.800  5.775E-09
2266.000  5.170E-09
2266.200  5.669E-09
2266.400  5.813E-09
2266.600  4.741E-09
2266.800  4.534E-09
2267.000  5.598E-09
2267.200  5.589E-09
2267.400  5.800E-09
2267.600  5.877E-09
2267.800  5.925E-09
2268.000  5.923E-09
2268.200  4.596E-09
2268.400  5.776E-09
2268.600  5.763E-09
2268.800  5.625E-09
2269.000  5.861E-09
2269.200  4.740E-09
2269.400  4.750E-09
2269.600  5.067E-09
2269.800  5.887E-09
2270.000  6.005E-09
2270.200  6.043E-09
2270.400  5.997E-09
2270.600  5.840E-09
2270.800  4.769E-09
2271.000  5.866E-09
2271.200  5.993E-09
2271.400  5.966E-09
2271.600  5.969E-09
2271.800  6.027E-09
2272.000  5.992E-09
2272.200  5.881E-09
2272.400  5.702E-09
2272.600  5.485E-09
2272.800  5.477E-09
2273.000  5.908E-09
2273.200  5.945E-09
2273.400  5.906E-09
2273.600  5.965E-09
2273.800  5.950E-09
2274.000  5.810E-09
2274.200  5.696E-09
2274.400  5.843E-09
2274.600  5.419E-09
2274.800  5.952E-09
2275.000  5.969E-09
2275.200  5.608E-09
2275.400  5.696E-09
2275.600  5.911E-09
2275.800  6.003E-09
2276.000  5.967E-09
2276.200  5.586E-09
2276.400  5.765E-09
2276.600  5.591E-09
2276.800  5.395E-09
2277.000  5.116E-09
2277.200  5.578E-09
2277.400  5.564E-09
2277.600  5.885E-09
2277.800  5.783E-09
2278.000  5.795E-09
2278.200  5.900E-09
2278.400  5.785E-09
2278.600  5.815E-09
2278.800  5.846E-09
2279.000  5.743E-09
2279.200  5.865E-09
2279.400  4.554E-09
2279.600  5.766E-09
2279.800  5.794E-09
2280.000  5.954E-09
2280.200  5.913E-09
2280.400  5.677E-09
2280.600  4.700E-09
2280.800  5.654E-09
2281.000  5.776E-09
2281.200  5.800E-09
2281.400  5.905E-09
2281.600  5.596E-09
2281.800  5.943E-09
2282.000  5.943E-09
2282.200  5.916E-09
2282.400  5.917E-09
2282.600  5.948E-09
2282.800  6.002E-09
2283.000  5.842E-09
2283.200  5.930E-09
2283.400  5.845E-09
2283.600  5.746E-09
2283.800  5.781E-09
2284.000  5.315E-09
2284.200  5.473E-09
2284.400  5.737E-09
2284.600  4.944E-09
2284.800  5.021E-09
2285.000  6.019E-09
2285.200  6.030E-09
2285.400  6.002E-09
2285.600  6.008E-09
2285.800  5.960E-09
2286.000  5.966E-09
2286.200  5.724E-09
2286.400  5.844E-09
2286.600  5.695E-09
2286.800  4.694E-09
2287.000  5.967E-09
2287.200  5.961E-09
2287.400  5.966E-09
2287.600  5.698E-09
2287.800  5.396E-09
2288.000  5.869E-09
2288.200  5.599E-09
2288.400  5.901E-09
2288.600  5.962E-09
2288.800  5.958E-09
2289.000  5.925E-09
2289.200  5.919E-09
2289.400  5.983E-09
2289.600  5.841E-09
2289.800  5.761E-09
2290.000  5.964E-09
2290.200  5.951E-09
2290.400  5.988E-09
2290.600  5.593E-09
2290.800  5.977E-09
2291.000  5.965E-09
2291.200  5.852E-09
2291.400  5.931E-09
2291.600  5.916E-09
2291.800  5.878E-09
2292.000  5.906E-09
2292.200  5.576E-09
2292.400  5.766E-09
2292.600  5.104E-09
2292.800  5.855E-09
2293.000  5.524E-09
2293.200  5.522E-09
2293.400  5.366E-09
2293.600  5.768E-09
2293.800  5.343E-09
2294.000  5.298E-09
2294.200  5.773E-09
2294.400  4.890E-09
2294.600  5.949E-09
2294.800  5.961E-09
2295.000  5.464E-09
2295.200  4.724E-09
2295.400  6.001E-09
2295.600  5.963E-09
2295.800  5.907E-09
2296.000  5.942E-09
2296.200  5.943E-09
2296.400  5.933E-09
2296.600  5.907E-09
2296.800  5.793E-09
2297.000  5.796E-09
2297.200  3.934E-09
2297.400  4.231E-09
2297.600  4.794E-09
2297.800  4.865E-09
2298.000  5.140E-09
2298.200  5.360E-09
2298.400  5.517E-09
2298.600  5.869E-09
2298.800  4.875E-09
2299.000  4.337E-09
2299.200  5.036E-09
2299.400  5.548E-09
2299.600  5.282E-09
2299.800  5.719E-09
2300.000  5.809E-09
2300.200  5.558E-09
2300.400  5.263E-09
2300.600  5.353E-09
2300.800  5.652E-09
2301.000  5.760E-09
2301.200  5.474E-09
2301.400  5.507E-09
2301.600  5.534E-09
2301.800  5.880E-09
2302.000  5.318E-09
2302.200  5.792E-09
2302.400  5.917E-09
2302.600  6.027E-09
2302.800  6.074E-09
2303.000  6.045E-09
2303.200  5.925E-09
2303.400  5.941E-09
2303.600  4.438E-09
2303.800  5.303E-09
2304.000  4.653E-09
2304.200  5.250E-09
2304.400  5.270E-09
2304.600  5.794E-09
2304.800  5.861E-09
2305.000  5.967E-09
2305.200  5.947E-09
2305.400  4.522E-09
2305.600  4.544E-09
2305.800  4.881E-09
2306.000  5.905E-09
2306.200  5.921E-09
2306.400  5.795E-09
2306.600  5.752E-09
2306.800  5.920E-09
2307.000  5.782E-09
2307.200  5.852E-09
2307.400  5.562E-09
2307.600  5.794E-09
2307.800  5.065E-09
2308.000  5.626E-09
2308.200  5.687E-09
2308.400  5.008E-09
2308.600  5.879E-09
2308.800  5.959E-09
2309.000  5.961E-09
2309.200  5.440E-09
2309.400  5.440E-09
2309.600  5.666E-09
2309.800  6.026E-09
2310.000  6.001E-09
2310.200  5.963E-09
2310.400  6.002E-09
2310.600  5.926E-09
2310.800  5.912E-09
2311.000  5.930E-09
2311.200  5.922E-09
2311.400  5.917E-09
2311.600  5.053E-09
2311.800  4.977E-09
2312.000  5.473E-09
2312.200  4.898E-09
2312.400  5.708E-09
2312.600  5.192E-09
2312.800  4.097E-09
2313.000  4.889E-09
2313.200  5.336E-09
2313.400  5.434E-09
2313.600  4.881E-09
2313.800  4.923E-09
2314.000  5.302E-09
2314.200  5.171E-09
2314.400  5.379E-09
2314.600  4.568E-09
2314.800  5.921E-09
2315.000  5.970E-09
2315.200  5.882E-09
2315.400  4.361E-09
2315.600  4.872E-09
2315.800  5.917E-09
2316.000  5.906E-09
2316.200  5.783E-09
2316.400  5.630E-09
2316.600  4.948E-09
2316.800  5.786E-09
2317.000  5.891E-09
2317.200  5.921E-09
2317.400  5.934E-09
2317.600  5.750E-09
2317.800  4.840E-09
2318.000  5.360E-09
2318.200  5.857E-09
2318.400  5.921E-09
2318.600  5.801E-09
2318.800  5.388E-09
2319.000  4.282E-09
2319.200  5.035E-09
2319.400  5.473E-09
2319.600  5.905E-09
2319.800  5.928E-09
2320.000  5.131E-09
2320.200  5.646E-09
2320.400  4.932E-09
2320.600  4.993E-09
2320.800  4.876E-09
2321.000  5.106E-09
2321.200  5.792E-09
2321.400  5.864E-09
2321.600  5.832E-09
2321.800  5.548E-09
2322.000  5.246E-09
2322.200  5.301E-09
2322.400  5.459E-09
2322.600  5.823E-09
2322.800  5.828E-09
2323.000  5.653E-09
2323.200  5.826E-09
2323.400  5.708E-09
2323.600  5.610E-09
2323.800  5.777E-09
2324.000  5.959E-09
2324.200  5.956E-09
2324.400  5.995E-09
2324.600  6.037E-09
2324.800  5.825E-09
2325.000  5.118E-09
2325.200  5.611E-09
2325.400  5.605E-09
2325.600  5.553E-09
2325.800  5.459E-09
2326.000  4.375E-09
2326.200  4.377E-09
2326.400  4.861E-09
2326.600  5.276E-09
2326.800  4.323E-09
2327.000  4.340E-09
2327.200  5.443E-09
2327.400  5.443E-09
2327.600  5.808E-09
2327.800  5.783E-09
2328.000  4.109E-09
2328.200  5.071E-09
2328.400  5.077E-09
2328.600  4.805E-09
2328.800  5.826E-09
2329.000  5.928E-09
2329.200  5.797E-09
2329.400  5.646E-09
2329.600  5.714E-09
2329.800  5.606E-09
2330.000  5.287E-09
2330.200  5.648E-09
2330.400  5.713E-09
2330.600  4.849E-09
2330.800  5.416E-09
2331.000  5.206E-09
2331.200  5.818E-09
2331.400  5.857E-09
2331.600  5.692E-09
2331.800  3.929E-09
2332.000  4.966E-09
2332.200  5.848E-09
2332.400  5.893E-09
2332.600  5.458E-09
2332.800  5.473E-09
2333.000  5.773E-09
2333.200  5.672E-09
2333.400  3.876E-09
2333.600  5.530E-09
2333.800  5.648E-09
2334.000  5.615E-09
2334.200  5.089E-09
2334.400  4.994E-09
2334.600  5.439E-09
2334.800  5.193E-09
2335.000  4.329E-09
2335.200  4.231E-09
2335.400  5.521E-09
2335.600  5.832E-09
2335.800  5.861E-09
2336.000  5.549E-09
2336.200  5.746E-09
2336.400  5.814E-09
2336.600  5.834E-09
2336.800  5.517E-09
2337.000  5.708E-09
2337.200  5.551E-09
2337.400  4.327E-09
2337.600  5.238E-09
2337.800  5.678E-09
2338.000  5.687E-09
2338.200  5.236E-09
2338.400  5.139E-09
2338.600  3.516E-09
2338.800  5.167E-09
2339.000  5.761E-09
2339.200  5.627E-09
2339.400  5.794E-09
2339.600  5.799E-09
2339.800  5.847E-09
2340.000  5.094E-09
2340.200  5.027E-09
2340.400  5.067E-09
2340.600  5.853E-09
2340.800  5.849E-09
2341.000  5.074E-09
2341.200  5.359E-09
2341.400  5.654E-09
2341.600  4.406E-09
2341.800  4.650E-09
2342.000  5.576E-09
2342.200  5.678E-09
2342.400  5.691E-09
2342.600  5.145E-09
2342.800  5.091E-09
2343.000  5.830E-09
2343.200  5.861E-09
2343.400  5.712E-09
2343.600  5.638E-09
2343.800  5.602E-09
2344.000  4.257E-09
2344.200  4.024E-09
2344.400  4.668E-09
2344.600  3.506E-09
2344.800  3.638E-09
2345.000  4.783E-09
2345.200  5.261E-09
2345.400  5.633E-09
2345.600  5.521E-09
2345.800  4.832E-09
2346.000  2.687E-09
2346.200  5.430E-09
2346.400  5.781E-09
2346.600  5.694E-09
2346.800  5.676E-09
2347.000  5.086E-09
2347.200  4.979E-09
2347.400  5.573E-09
2347.600  5.572E-09
2347.800  5.553E-09
2348.000  5.154E-09
2348.200  5.664E-09
2348.400  5.649E-09
2348.600  5.149E-09
2348.800  2.200E-09
2349.000  4.609E-09
2349.200  5.564E-09
2349.400  5.564E-09
2349.600  5.709E-09
2349.800  5.625E-09
2350.000  5.759E-09
2350.200  5.782E-09
2350.400  5.763E-09
2350.600  5.595E-09
2350.800  4.825E-09
2351.000  5.592E-09
2351.200  5.616E-09
2351.400  5.620E-09
2351.600  5.519E-09
2351.800  4.857E-09
2352.000  5.804E-09
2352.200  5.738E-09
2352.400  5.435E-09
2352.600  5.482E-09
2352.800  5.547E-09
2353.000  5.625E-09
2353.200  5.839E-09
2353.400  5.822E-09
2353.600  5.798E-09
2353.800  5.755E-09
2354.000  5.172E-09
2354.200  4.275E-09
2354.400  5.564E-09
2354.600  5.757E-09
2354.800  5.693E-09
2355.000  5.607E-09
2355.200  5.387E-09
2355.400  5.391E-09
2355.600  4.734E-09
2355.800  4.690E-09
2356.000  5.037E-09
2356.200  5.770E-09
2356.400  5.737E-09
2356.600  5.627E-09
2356.800  5.517E-09
2357.000  4.766E-09
2357.200  5.725E-09
2357.400  5.720E-09
2357.600  5.023E-09
2357.800  5.694E-09
2358.000  5.833E-09
2358.200  5.839E-09
2358.400  5.657E-09
2358.600  5.596E-09
2358.800  5.585E-09
2359.000  5.516E-09
2359.200  5.673E-09
2359.400  5.673E-09
2359.600  5.182E-09
2359.800  4.750E-09
2360.000  5.423E-09
2360.200  4.645E-09
2360.400  5.080E-09
2360.600  3.816E-09
2360.800  3.184E-09
2361.000  3.919E-09
2361.200  5.271E-09
2361.400  5.363E-09
2361.600  5.736E-09
2361.800  5.729E-09
2362.000  5.412E-09
2362.200  5.148E-09
2362.400  4.416E-09
2362.600  4.368E-09
2362.800  5.684E-09
2363.000  5.835E-09
2363.200  5.801E-09
2363.400  5.806E-09
2363.600  5.744E-09
2363.800  5.562E-09
2364.000  5.214E-09
2364.200  4.214E-09
2364.400  3.668E-09
2364.600  5.460E-09
2364.800  5.676E-09
2365.000  5.694E-09
2365.200  5.685E-09
2365.400  4.443E-09
2365.600  5.100E-09
2365.800  5.208E-09
2366.000  5.626E-09
2366.200  5.679E-09
2366.400  5.009E-09
2366.600  5.242E-09
2366.800  5.742E-09
2367.000  5.721E-09
2367.200  4.060E-09
2367.400  3.713E-09
2367.600  5.355E-09
2367.800  5.382E-09
2368.000  4.618E-09
2368.200  5.716E-09
2368.400  5.811E-09
2368.600  5.811E-09
2368.800  5.693E-09
2369.000  5.481E-09
2369.200  4.219E-09
2369.400  5.539E-09
2369.600  5.643E-09
2369.800  5.456E-09
2370.000  5.812E-09
2370.200  5.838E-09
2370.400  5.127E-09
2370.600  4.596E-09
2370.800  5.563E-09
2371.000  5.537E-09
2371.200  4.035E-09
2371.400  5.430E-09
2371.600  5.765E-09
2371.800  5.871E-09
2372.000  5.846E-09
2372.200  5.714E-09
2372.400  5.446E-09
2372.600  5.710E-09
2372.800  5.716E-09
2373.000  5.223E-09
2373.200  5.172E-09
2373.400  4.889E-09
2373.600  5.515E-09
2373.800  5.311E-09
2374.000  5.063E-09
2374.200  5.034E-09
2374.400  3.892E-09
2374.600  5.631E-09
2374.800  5.614E-09
2375.000  5.469E-09
2375.200  5.315E-09
2375.400  5.522E-09
2375.600  5.470E-09
2375.800  4.005E-09
2376.000  3.837E-09
2376.200  5.630E-09
2376.400  5.737E-09
2376.600  5.556E-09
2376.800  5.584E-09
2377.000  5.318E-09
2377.200  5.587E-09
2377.400  5.611E-09
2377.600  5.847E-09
2377.800  5.797E-09
2378.000  5.723E-09
2378.200  5.820E-09
2378.400  5.783E-09
2378.600  5.462E-09
2378.800  5.714E-09
2379.000  5.718E-09
2379.200  3.858E-09
2379.400  4.841E-09
2379.600  4.629E-09
2379.800  3.085E-09
2380.000  4.377E-09
2380.200  5.615E-09
2380.400  5.672E-09
2380.600  5.714E-09
2380.800  5.614E-09
2381.000  5.614E-09
2381.200  5.561E-09
2381.400  3.326E-09
2381.600  4.903E-09
2381.800  5.493E-09
2382.000  5.489E-09
2382.200  4.607E-09
2382.400  4.245E-09
2382.600  2.113E-09
2382.800  2.232E-09
2383.000  3.785E-09
2383.200  5.242E-09
2383.400  5.245E-09
2383.600  3.493E-09
2383.800  2.441E-09
2384.000  3.547E-09
2384.200  5.640E-09
2384.400  5.763E-09
2384.600  5.691E-09
2384.800  5.640E-09
2385.000  4.276E-09
2385.200  5.608E-09
2385.400  5.649E-09
2385.600  4.739E-09
2385.800  5.753E-09
2386.000  5.817E-09
2386.200  5.808E-09
2386.400  5.824E-09
2386.600  5.755E-09
2386.800  5.579E-09
2387.000  4.605E-09
2387.200  5.185E-09
2387.400  5.140E-09
2387.600  5.396E-09
2387.800  5.548E-09
2388.000  4.841E-09
2388.200  4.814E-09
2388.400  4.632E-09
2388.600  5.582E-09
2388.800  5.240E-09
2389.000  3.125E-09
2389.200  2.825E-09
2389.400  3.189E-09
2389.600  4.765E-09
2389.800  5.639E-09
2390.000  5.631E-09
2390.200  4.829E-09
2390.400  4.949E-09
2390.600  4.914E-09
2390.800  5.046E-09
2391.000  5.087E-09
2391.200  5.257E-09
2391.400  5.205E-09
2391.600  5.798E-09
2391.800  5.798E-09
2392.000  5.270E-09
2392.200  4.968E-09
2392.400  5.814E-09
2392.600  5.826E-09
2392.800  5.603E-09
2393.000  5.710E-09
2393.200  5.165E-09
2393.400  5.765E-09
2393.600  5.702E-09
2393.800  5.697E-09
2394.000  5.744E-09
2394.200  5.785E-09
2394.400  5.797E-09
2394.600  4.859E-09
2394.800  5.449E-09
2395.000  5.448E-09
2395.200  4.408E-09
2395.400  4.646E-09
2395.600  4.907E-09
2395.800  5.094E-09
2396.000  4.252E-09
2396.200  1.405E-09
2396.400  4.006E-09
2396.600  5.031E-09
2396.800  5.525E-09
2397.000  5.611E-09
2397.200  5.511E-09
2397.400  5.080E-09
2397.600  5.685E-09
2397.800  5.681E-09
2398.000  4.898E-09
2398.200  5.552E-09
2398.400  5.284E-09
2398.600  5.746E-09
2398.800  5.771E-09
2399.000  5.552E-09
2399.200  5.217E-09
2399.400  5.511E-09
2399.600  5.521E-09
2399.800  4.024E-09
2400.000  4.189E-09
2400.200  4.878E-09
2400.400  5.498E-09
2400.600  5.261E-09
2400.800  4.586E-09
2401.000  4.751E-09
2401.200  5.716E-09
2401.400  5.760E-09
2401.600  5.760E-09
2401.800  5.690E-09
2402.000  5.069E-09
2402.200  5.494E-09
2402.400  5.589E-09
2402.600  5.583E-09
2402.800  4.688E-09
2403.000  4.182E-09
2403.200  3.868E-09
2403.400  5.586E-09
2403.600  5.713E-09
2403.800  5.758E-09
2404.000  5.782E-09
2404.200  5.767E-09
2404.400  5.426E-09
2404.600  5.146E-09
2404.800  4.703E-09
2405.000  4.068E-09
2405.200  4.189E-09
2405.400  4.136E-09
2405.600  3.300E-09
2405.800  4.954E-09
2406.000  5.572E-09
2406.200  5.575E-09
2406.400  5.130E-09
2406.600  5.216E-09
2406.800  5.318E-09
2407.000  5.330E-09
2407.200  4.610E-09
2407.400  3.818E-09
2407.600  4.276E-09
2407.800  5.147E-09
2408.000  5.522E-09
2408.200  5.482E-09
2408.400  4.315E-09
2408.600  4.976E-09
2408.800  5.732E-09
2409.000  5.569E-09
2409.200  4.961E-09
2409.400  4.693E-09
2409.600  5.698E-09
2409.800  5.737E-09
2410.000  5.238E-09
2410.200  5.054E-09
2410.400  4.880E-09
2410.600  5.416E-09
2410.800  5.267E-09
2411.000  3.310E-09
2411.200  3.302E-09
2411.400  4.640E-09
2411.600  4.468E-09
2411.800  4.437E-09
2412.000  5.502E-09
2412.200  5.424E-09
2412.400  5.263E-09
2412.600  5.341E-09
2412.800  5.358E-09
2413.000  5.173E-09
2413.200  5.646E-09
2413.400  5.637E-09
2413.600  5.525E-09
2413.800  4.409E-09
2414.000  3.721E-09
2414.200  5.274E-09
2414.400  5.572E-09
2414.600  5.412E-09
2414.800  5.331E-09
2415.000  5.701E-09
2415.200  5.621E-09
2415.400  5.707E-09
2415.600  5.647E-09
2415.800  5.338E-09
2416.000  5.587E-09
2416.200  5.754E-09
2416.400  5.566E-09
2416.600  4.969E-09
2416.800  4.125E-09
2417.000  4.338E-09
2417.200  4.929E-09
2417.400  4.822E-09
2417.600  5.485E-09
2417.800  5.731E-09
2418.000  5.754E-09
2418.200  5.583E-09
2418.400  3.800E-09
2418.600  4.946E-09
2418.800  5.067E-09
2419.000  5.072E-09
2419.200  4.857E-09
2419.400  5.426E-09
2419.600  5.745E-09
2419.800  5.672E-09
2420.000  5.429E-09
2420.200  5.798E-09
2420.400  5.772E-09
2420.600  4.441E-09
2420.800  5.642E-09
2421.000  5.769E-09
2421.200  5.769E-09
2421.400  5.338E-09
2421.600  5.720E-09
2421.800  5.808E-09
2422.000  5.826E-09
2422.200  5.857E-09
2422.400  5.772E-09
2422.600  5.459E-09
2422.800  5.769E-09
2423.000  5.739E-09
2423.200  5.603E-09
2423.400  4.486E-09
2423.600  4.853E-09
2423.800  4.836E-09
2424.000  5.469E-09
2424.200  5.374E-09
2424.400  5.079E-09
2424.600  4.901E-09
2424.800  3.768E-09
2425.000  3.804E-09
2425.200  3.500E-09
2425.400  5.533E-09
2425.600  5.607E-09
2425.800  5.573E-09
2426.000  4.828E-09
2426.200  5.012E-09
2426.400  4.291E-09
2426.600  5.075E-09
2426.800  5.711E-09
2427.000  5.736E-09
2427.200  5.747E-09
2427.400  5.749E-09
2427.600  5.705E-09
2427.800  4.653E-09
2428.000  5.360E-09
2428.200  5.600E-09
2428.400  5.284E-09
2428.600  5.144E-09
2428.800  4.705E-09
2429.000  4.285E-09
2429.200  5.557E-09
2429.400  5.263E-09
2429.600  4.183E-09
2429.800  4.459E-09
2430.000  4.343E-09
2430.200  5.240E-09
2430.400  5.577E-09
2430.600  5.263E-09
2430.800  4.475E-09
2431.000  5.677E-09
2431.200  5.760E-09
2431.400  5.760E-09
2431.600  5.196E-09
2431.800  5.316E-09
2432.000  5.625E-09
2432.200  5.627E-09
2432.400  5.646E-09
2432.600  5.686E-09
2432.800  5.497E-09
2433.000  5.010E-09
2433.200  5.102E-09
2433.400  4.378E-09
2433.600  4.783E-09
2433.800  5.302E-09
2434.000  5.264E-09
2434.200  4.418E-09
2434.400  5.678E-09
2434.600  5.658E-09
2434.800  4.709E-09
2435.000  5.166E-09
2435.200  5.145E-09
2435.400  3.209E-09
2435.600  3.321E-09
2435.800  5.169E-09
2436.000  5.723E-09
2436.200  5.718E-09
2436.400  5.523E-09
2436.600  5.563E-09
2436.800  5.433E-09
2437.000  5.025E-09
2437.200  4.854E-09
2437.400  5.451E-09
2437.600  5.300E-09
2437.800  3.557E-09
2438.000  4.952E-09
2438.200  5.213E-09
2438.400  4.860E-09
2438.600  5.068E-09
2438.800  5.366E-09
2439.000  5.379E-09
2439.200  5.582E-09
2439.400  5.595E-09
2439.600  5.672E-09
2439.800  5.627E-09
2440.000  4.774E-09
2440.200  5.377E-09
2440.400  5.088E-09
2440.600  5.244E-09
2440.800  5.245E-09
2441.000  5.017E-09
2441.200  5.638E-09
2441.400  5.728E-09
2441.600  5.662E-09
2441.800  5.288E-09
2442.000  5.678E-09
2442.200  5.107E-09
2442.400  5.769E-09
2442.600  5.773E-09
2442.800  5.703E-09
2443.000  5.535E-09
2443.200  5.146E-09
2443.400  5.677E-09
2443.600  5.700E-09
2443.800  5.755E-09
2444.000  5.634E-09
2444.200  5.650E-09
2444.400  5.142E-09
2444.600  5.687E-09
2444.800  5.694E-09
2445.000  4.899E-09
2445.200  4.688E-09
2445.400  5.697E-09
2445.600  5.688E-09
2445.800  5.276E-09
2446.000  5.654E-09
2446.200  4.650E-09
2446.400  4.289E-09
2446.600  4.749E-09
2446.800  4.312E-09
2447.000  4.350E-09
2447.200  5.285E-09
2447.400  5.603E-09
2447.600  5.535E-09
2447.800  5.196E-09
2448.000  4.852E-09
2448.200  4.980E-09
2448.400  4.217E-09
2448.600  5.559E-09
2448.800  5.611E-09
2449.000  5.711E-09
2449.200  5.745E-09
2449.400  5.388E-09
2449.600  5.686E-09
2449.800  5.119E-09
2450.000  5.382E-09
2450.200  5.393E-09
2450.400  4.301E-09
2450.600  4.164E-09
2450.800  3.591E-09
2451.000  5.203E-09
2451.200  5.650E-09
2451.400  5.650E-09
2451.600  5.538E-09
2451.800  3.975E-09
2452.000  4.978E-09
2452.200  5.591E-09
2452.400  5.644E-09
2452.600  5.657E-09
2452.800  5.399E-09
2453.000  5.249E-09
2453.200  5.391E-09
2453.400  5.526E-09
2453.600  5.152E-09
2453.800  4.968E-09
2454.000  5.501E-09
2454.200  5.466E-09
2454.400  4.693E-09
2454.600  4.005E-09
2454.800  4.823E-09
2455.000  5.289E-09
2455.200  4.527E-09
2455.400  5.662E-09
2455.600  5.686E-09
2455.800  5.645E-09
2456.000  5.657E-09
2456.200  5.025E-09
2456.400  4.572E-09
2456.600  5.337E-09
2456.800  5.566E-09
2457.000  5.662E-09
2457.200  5.526E-09
2457.400  4.448E-09
2457.600  5.262E-09
2457.800  5.532E-09
2458.000  5.601E-09
2458.200  4.869E-09
2458.400  5.476E-09
2458.600  5.687E-09
2458.800  5.697E-09
2459.000  5.620E-09
2459.200  5.620E-09
2459.400  4.684E-09
2459.600  3.529E-09
2459.800  4.234E-09
2460.000  5.181E-09
2460.200  5.780E-09
2460.400  5.780E-09
2460.600  5.609E-09
2460.800  5.237E-09
2461.000  5.043E-09
2461.200  4.788E-09
2461.400  5.541E-09
2461.600  5.626E-09
2461.800  5.497E-09
2462.000  5.080E-09
2462.200  5.284E-09
2462.400  4.057E-09
2462.600  5.167E-09
2462.800  5.363E-09
2463.000  4.901E-09
2463.200  4.855E-09
2463.400  5.452E-09
2463.600  5.627E-09
2463.800  5.556E-09
2464.000  5.088E-09
2464.200  5.436E-09
2464.400  4.515E-09
2464.600  3.837E-09
2464.800  4.850E-09
2465.000  5.522E-09
2465.200  5.521E-09
2465.400  5.534E-09
2465.600  4.375E-09
2465.800  4.354E-09
2466.000  5.587E-09
2466.200  5.588E-09
2466.400  5.475E-09
2466.600  4.856E-09
2466.800  5.299E-09
2467.000  5.138E-09
2467.200  4.520E-09
2467.400  3.146E-09
2467.600  5.399E-09
2467.800  5.691E-09
2468.000  5.711E-09
2468.200  5.657E-09
2468.400  5.180E-09
2468.600  5.337E-09
2468.800  5.100E-09
2469.000  4.581E-09
2469.200  5.006E-09
2469.400  5.404E-09
2469.600  5.339E-09
2469.800  5.340E-09
2470.000  4.921E-09
2470.200  4.506E-09
2470.400  4.609E-09
2470.600  5.526E-09
2470.800  5.641E-09
2471.000  5.164E-09
2471.200  4.162E-09
2471.400  3.748E-09
2471.600  5.547E-09
2471.800  5.557E-09
2472.000  5.453E-09
2472.200  5.489E-09
2472.400  5.492E-09
2472.600  5.521E-09
2472.800  4.953E-09
2473.000  4.906E-09
2473.200  4.197E-09
2473.400  4.580E-09
2473.600  4.138E-09
2473.800  3.649E-09
2474.000  4.628E-09
2474.200  5.585E-09
2474.400  5.664E-09
2474.600  5.641E-09
2474.800  5.512E-09
2475.000  5.490E-09
2475.200  4.930E-09
2475.400  4.659E-09
2475.600  4.849E-09
2475.800  5.129E-09
2476.000  5.500E-09
2476.200  4.755E-09
2476.400  5.509E-09
2476.600  5.603E-09
2476.800  5.483E-09
2477.000  4.938E-09
2477.200  5.107E-09
2477.400  4.916E-09
2477.600  5.494E-09
2477.800  5.515E-09
2478.000  4.417E-09
2478.200  5.317E-09
2478.400  5.683E-09
2478.600  5.661E-09
2478.800  4.371E-09
2479.000  4.268E-09
2479.200  3.723E-09
2479.400  5.436E-09
2479.600  5.443E-09
2479.800  5.190E-09
2480.000  4.678E-09
2480.200  5.177E-09
2480.400  4.991E-09
2480.600  5.098E-09
2480.800  4.272E-09
2481.000  5.625E-09
2481.200  5.671E-09
2481.400  5.644E-09
2481.600  5.390E-09
2481.800  5.378E-09
2482.000  5.525E-09
2482.200  5.105E-09
2482.400  5.633E-09
2482.600  5.620E-09
2482.800  3.745E-09
2483.000  4.867E-09
2483.200  4.937E-09
2483.400  4.303E-09
2483.600  5.229E-09
2483.800  5.277E-09
2484.000  5.113E-09
2484.200  5.323E-09
2484.400  4.545E-09
2484.600  5.494E-09
2484.800  4.955E-09
2485.000  3.902E-09
2485.200  4.796E-09
2485.400  5.581E-09
2485.600  5.575E-09
2485.800  5.126E-09
2486.000  5.266E-09
2486.200  5.613E-09
2486.400  5.675E-09
2486.600  5.640E-09
2486.800  5.318E-09
2487.000  3.837E-09
2487.200  5.267E-09
2487.400  5.442E-09
2487.600  5.453E-09
2487.800  5.463E-09
2488.000  5.501E-09
2488.200  5.619E-09
2488.400  5.619E-09
2488.600  5.549E-09
2488.800  4.485E-09
2489.000  5.307E-09
2489.200  5.638E-09
2489.400  5.641E-09
2489.600  5.442E-09
2489.800  4.912E-09
2490.000  4.888E-09
2490.200  4.215E-09
2490.400  4.212E-09
2490.600  5.205E-09
2490.800  5.342E-09
2491.000  5.315E-09
2491.200  5.264E-09
2491.400  3.100E-09
2491.600  4.420E-09
2491.800  4.380E-09
2492.000  3.794E-09
2492.200  5.498E-09
2492.400  5.562E-09
2492.600  5.399E-09
2492.800  5.417E-09
2493.000  4.546E-09
2493.200  5.153E-09
2493.400  5.100E-09
2493.600  5.109E-09
2493.800  4.373E-09
2494.000  4.801E-09
2494.200  5.587E-09
2494.400  5.555E-09
2494.600  4.667E-09
2494.800  4.705E-09
2495.000  5.613E-09
2495.200  5.634E-09
2495.400  5.580E-09
2495.600  5.500E-09
2495.800  5.521E-09
2496.000  5.600E-09
2496.200  5.641E-09
2496.400  5.603E-09
2496.600  5.383E-09
2496.800  5.535E-09
2497.000  5.525E-09
2497.200  5.313E-09
2497.400  5.566E-09
2497.600  5.527E-09
2497.800  5.467E-09
2498.000  5.160E-09
2498.200  5.339E-09
2498.400  4.028E-09
2498.600  5.387E-09
2498.800  5.478E-09
2499.000  5.100E-09
2499.200  5.515E-09
2499.400  5.425E-09
2499.600  3.643E-09
2499.800  5.497E-09
2500.000  5.575E-09
2500.200  5.573E-09
2500.400  5.622E-09
2500.600  5.632E-09
2500.800  5.586E-09
2501.000  5.563E-09
2501.200  5.587E-09
2501.400  5.579E-09
2501.600  4.553E-09
2501.800  4.620E-09
2502.000  4.915E-09
2502.200  5.381E-09
2502.400  5.531E-09
2502.600  5.552E-09
2502.800  5.554E-09
2503.000  4.991E-09
2503.200  5.530E-09
2503.400  5.600E-09
2503.600  5.593E-09
2503.800  5.551E-09
2504.000  4.062E-09
2504.200  4.029E-09
2504.400  4.489E-09
2504.600  5.073E-09
2504.800  5.599E-09
2505.000  5.630E-09
2505.200  5.599E-09
2505.400  5.582E-09
2505.600  5.508E-09
2505.800  5.090E-09
2506.000  5.286E-09
2506.200  5.348E-09
2506.400  5.348E-09
2506.600  4.934E-09
2506.800  4.762E-09
2507.000  4.897E-09
2507.200  5.060E-09
2507.400  5.069E-09
2507.600  3.836E-09
2507.800  5.550E-09
2508.000  5.592E-09
2508.200  5.285E-09
2508.400  4.907E-09
2508.600  5.281E-09
2508.800  5.536E-09
2509.000  5.214E-09
2509.200  5.594E-09
2509.400  5.590E-09
2509.600  5.550E-09
2509.800  4.812E-09
2510.000  5.561E-09
2510.200  5.531E-09
2510.400  5.450E-09
2510.600  5.214E-09
2510.800  5.290E-09
2511.000  5.424E-09
2511.200  5.224E-09
2511.400  4.831E-09
2511.600  4.816E-09
2511.800  5.064E-09
2512.000  4.407E-09
2512.200  5.033E-09
2512.400  4.393E-09
2512.600  5.319E-09
2512.800  5.427E-09
2513.000  5.215E-09
2513.200  4.665E-09
2513.400  5.304E-09
2513.600  5.510E-09
2513.800  5.102E-09
2514.000  4.797E-09
2514.200  5.310E-09
2514.400  5.564E-09
2514.600  5.594E-09
2514.800  5.510E-09
2515.000  3.916E-09
2515.200  5.349E-09
2515.400  5.352E-09
2515.600  4.159E-09
2515.800  5.203E-09
2516.000  5.579E-09
2516.200  5.580E-09
2516.400  5.580E-09
2516.600  5.193E-09
2516.800  4.662E-09
2517.000  5.272E-09
2517.200  5.180E-09
2517.400  5.134E-09
2517.600  5.360E-09
2517.800  4.253E-09
2518.000  4.879E-09
2518.200  5.342E-09
2518.400  5.418E-09
2518.600  5.353E-09
2518.800  4.647E-09
2519.000  5.430E-09
2519.200  5.525E-09
2519.400  5.477E-09
2519.600  5.236E-09
2519.800  3.767E-09
2520.000  4.348E-09
2520.200  4.468E-09
2520.400  4.627E-09
2520.600  5.436E-09
2520.800  5.433E-09
2521.000  5.109E-09
2521.200  5.106E-09
2521.400  4.623E-09
2521.600  4.987E-09
2521.800  4.261E-09
2522.000  5.034E-09
2522.200  5.099E-09
2522.400  5.016E-09
2522.600  5.053E-09
2522.800  4.949E-09
2523.000  5.263E-09
2523.200  5.302E-09
2523.400  5.270E-09
2523.600  4.712E-09
2523.800  5.070E-09
2524.000  4.929E-09
2524.200  4.901E-09
2524.400  5.353E-09
2524.600  5.404E-09
2524.800  4.301E-09
2525.000  5.153E-09
2525.200  5.211E-09
2525.400  5.101E-09
2525.600  4.929E-09
2525.800  4.111E-09
2526.000  4.006E-09
2526.200  4.116E-09
2526.400  4.270E-09
2526.600  3.682E-09
2526.800  3.227E-09
2527.000  4.662E-09
2527.200  5.397E-09
2527.400  5.171E-09
2527.600  4.178E-09
2527.800  3.939E-09
2528.000  4.361E-09
2528.200  3.975E-09
2528.400  4.573E-09
2528.600  5.220E-09
2528.800  5.346E-09
2529.000  5.337E-09
2529.200  3.925E-09
2529.400  4.771E-09
2529.600  4.826E-09
2529.800  3.558E-09
2530.000  4.095E-09
2530.200  3.740E-09
2530.400  4.127E-09
2530.600  3.749E-09
2530.800  4.230E-09
2531.000  5.410E-09
2531.200  5.434E-09
2531.400  5.139E-09
2531.600  5.291E-09
2531.800  4.525E-09
2532.000  5.212E-09
2532.200  5.437E-09
2532.400  5.399E-09
2532.600  5.283E-09
2532.800  5.421E-09
2533.000  5.335E-09
2533.200  5.412E-09
2533.400  5.363E-09
2533.600  5.432E-09
2533.800  5.442E-09
2534.000  5.187E-09
2534.200  4.778E-09
2534.400  4.654E-09
2534.600  5.195E-09
2534.800  5.130E-09
2535.000  3.860E-09
2535.200  4.302E-09
2535.400  5.343E-09
2535.600  5.442E-09
2535.800  5.425E-09
2536.000  5.146E-09
2536.200  3.710E-09
2536.400  4.524E-09
2536.600  5.063E-09
2536.800  5.481E-09
2537.000  5.476E-09
2537.200  5.398E-09
2537.400  3.336E-09
2537.600  4.016E-09
2537.800  4.020E-09
2538.000  4.956E-09
2538.200  5.494E-09
2538.400  5.524E-09
2538.600  4.997E-09
2538.800  4.342E-09
2539.000  3.341E-09
2539.200  2.672E-09
2539.400  2.470E-09
2539.600  2.458E-09
2539.800  5.153E-09
2540.000  5.287E-09
2540.200  5.332E-09
2540.400  5.205E-09
2540.600  5.164E-09
2540.800  5.415E-09
2541.000  5.433E-09
2541.200  4.828E-09
2541.400  4.402E-09
2541.600  4.465E-09
2541.800  4.532E-09
2542.000  5.498E-09
2542.200  5.495E-09
2542.400  5.314E-09
2542.600  4.096E-09
2542.800  4.579E-09
2543.000  4.713E-09
2543.200  5.182E-09
2543.400  4.402E-09
2543.600  4.462E-09
2543.800  4.799E-09
2544.000  4.369E-09
2544.200  5.223E-09
2544.400  5.440E-09
2544.600  4.986E-09
2544.800  5.291E-09
2545.000  5.424E-09
2545.200  5.427E-09
2545.400  5.120E-09
2545.600  4.488E-09
2545.800  3.545E-09
2546.000  3.577E-09
2546.200  4.721E-09
2546.400  5.084E-09
2546.600  3.941E-09
2546.800  5.165E-09
2547.000  5.231E-09
2547.200  5.091E-09
2547.400  4.377E-09
2547.600  5.380E-09
2547.800  5.446E-09
2548.000  4.385E-09
2548.200  5.387E-09
2548.400  5.347E-09
2548.600  5.224E-09
2548.800  4.598E-09
2549.000  3.644E-09
2549.200  3.649E-09
2549.400  3.099E-09
2549.600  3.318E-09
2549.800  4.163E-09
2550.000  4.174E-09
2550.200  3.543E-09
2550.400  4.027E-09
2550.600  4.037E-09
2550.800  4.405E-09
2551.000  5.198E-09
2551.200  4.859E-09
2551.400  4.568E-09
2551.600  5.136E-09
2551.800  4.758E-09
2552.000  5.189E-09
2552.200  5.180E-09
2552.400  5.027E-09
2552.600  5.407E-09
2552.800  5.487E-09
2553.000  5.302E-09
2553.200  5.482E-09
2553.400  5.484E-09
2553.600  5.446E-09
2553.800  5.306E-09
2554.000  5.429E-09
2554.200  5.454E-09
2554.400  4.827E-09
2554.600  5.529E-09
2554.800  5.544E-09
2555.000  5.536E-09
2555.200  5.446E-09
2555.400  5.504E-09
2555.600  5.003E-09
2555.800  4.977E-09
2556.000  5.047E-09
2556.200  4.993E-09
2556.400  5.371E-09
2556.600  5.149E-09
2556.800  5.427E-09
2557.000  5.440E-09
2557.200  5.033E-09
2557.400  5.053E-09
2557.600  4.891E-09
2557.800  4.710E-09
2558.000  5.010E-09
2558.200  4.286E-09
2558.400  5.309E-09
2558.600  5.372E-09
2558.800  5.453E-09
2559.000  5.307E-09
2559.200  5.079E-09
2559.400  5.279E-09
2559.600  5.390E-09
2559.800  5.364E-09
2560.000  4.350E-09
2560.200  4.825E-09
2560.400  4.595E-09
2560.600  4.294E-09
2560.800  4.567E-09
2561.000  4.503E-09
2561.200  5.344E-09
2561.400  5.432E-09
2561.600  5.417E-09
2561.800  5.500E-09
2562.000  5.517E-09
2562.200  5.282E-09
2562.400  5.344E-09
2562.600  5.344E-09
2562.800  4.555E-09
2563.000  4.798E-09
2563.200  3.214E-09
2563.400  5.168E-09
2563.600  5.378E-09
2563.800  5.356E-09
2564.000  4.843E-09
2564.200  2.536E-09
2564.400  3.985E-09
2564.600  4.312E-09
2564.800  5.324E-09
2565.000  5.464E-09
2565.200  5.452E-09
2565.400  5.473E-09
2565.600  5.493E-09
2565.800  5.389E-09
2566.000  5.329E-09
2566.200  5.486E-09
2566.400  5.515E-09
2566.600  5.357E-09
2566.800  5.133E-09
2567.000  4.493E-09
2567.200  4.468E-09
2567.400  4.040E-09
2567.600  3.999E-09
2567.800  5.366E-09
2568.000  5.320E-09
2568.200  5.341E-09
2568.400  5.381E-09
2568.600  5.363E-09
2568.800  5.390E-09
2569.000  5.051E-09
2569.200  5.191E-09
2569.400  5.265E-09
2569.600  4.900E-09
2569.800  5.436E-09
2570.000  5.431E-09
2570.200  5.411E-09
2570.400  5.126E-09
2570.600  5.415E-09
2570.800  5.464E-09
2571.000  5.460E-09
2571.200  5.239E-09
2571.400  5.134E-09
2571.600  4.226E-09
2571.800  5.219E-09
2572.000  5.280E-09
2572.200  4.577E-09
2572.400  4.665E-09
2572.600  5.199E-09
2572.800  5.270E-09
2573.000  5.378E-09
2573.200  5.337E-09
2573.400  5.152E-09
2573.600  4.861E-09
2573.800  4.241E-09
2574.000  4.975E-09
2574.200  4.983E-09
2574.400  4.980E-09
2574.600  5.317E-09
2574.800  5.279E-09
2575.000  4.359E-09
2575.200  5.278E-09
2575.400  5.313E-09
2575.600  5.184E-09
2575.800  5.311E-09
2576.000  5.389E-09
2576.200  5.351E-09
2576.400  5.142E-09
2576.600  4.876E-09
2576.800  3.729E-09
2577.000  5.282E-09
2577.200  5.320E-09
2577.400  5.151E-09
2577.600  4.904E-09
2577.800  5.387E-09
2578.000  5.346E-09
2578.200  5.202E-09
2578.400  5.211E-09
2578.600  3.756E-09
2578.800  4.836E-09
2579.000  5.020E-09
2579.200  5.389E-09
2579.400  5.343E-09
2579.600  4.859E-09
2579.800  4.745E-09
2580.000  4.746E-09
2580.200  5.333E-09
2580.400  5.391E-09
2580.600  5.318E-09
2580.800  5.150E-09
2581.000  4.473E-09
2581.200  5.230E-09
2581.400  5.170E-09
2581.600  5.279E-09
2581.800  4.821E-09
2582.000  5.372E-09
2582.200  5.370E-09
2582.400  5.238E-09
2582.600  5.326E-09
2582.800  5.098E-09
2583.000  3.965E-09
2583.200  3.255E-09
2583.400  4.982E-09
2583.600  5.016E-09
2583.800  4.778E-09
2584.000  4.994E-09
2584.200  5.242E-09
2584.400  5.318E-09
2584.600  5.278E-09
2584.800  4.972E-09
2585.000  5.225E-09
2585.200  4.913E-09
2585.400  5.259E-09
2585.600  5.235E-09
2585.800  5.174E-09
2586.000  5.133E-09
2586.200  4.766E-09
2586.400  3.406E-09
2586.600  2.918E-09
2586.800  4.815E-09
2587.000  5.155E-09
2587.200  5.172E-09
2587.400  5.227E-09
2587.600  5.217E-09
2587.800  5.075E-09
2588.000  5.042E-09
2588.200  5.182E-09
2588.400  5.205E-09
2588.600  4.496E-09
2588.800  4.268E-09
2589.000  5.235E-09
2589.200  5.323E-09
2589.400  5.092E-09
2589.600  4.828E-09
2589.800  5.326E-09
2590.000  5.360E-09
2590.200  5.344E-09
2590.400  4.631E-09
2590.600  5.033E-09
2590.800  4.887E-09
2591.000  5.017E-09
2591.200  4.553E-09
2591.400  4.837E-09
2591.600  5.330E-09
2591.800  5.320E-09
2592.000  4.963E-09
2592.200  3.490E-09
2592.400  5.205E-09
2592.600  5.272E-09
2592.800  5.353E-09
2593.000  5.358E-09
2593.200  5.381E-09
2593.400  4.799E-09
2593.600  5.270E-09
2593.800  5.328E-09
2594.000  4.998E-09
2594.200  4.883E-09
2594.400  3.136E-09
2594.600  5.141E-09
2594.800  5.185E-09
2595.000  5.164E-09
2595.200  5.122E-09
2595.400  4.837E-09
2595.600  4.687E-09
2595.800  4.807E-09
2596.000  4.660E-09
2596.200  5.032E-09
2596.400  5.249E-09
2596.600  5.251E-09
2596.800  5.055E-09
2597.000  5.254E-09
2597.200  5.281E-09
2597.400  5.253E-09
2597.600  5.270E-09
2597.800  5.285E-09
2598.000  5.264E-09
2598.200  5.216E-09
2598.400  5.182E-09
2598.600  4.628E-09
2598.800  3.888E-09
2599.000  3.138E-09
2599.200  4.371E-09
2599.400  4.670E-09
2599.600  4.174E-09
2599.800  3.933E-09
2600.000  2.658E-09
2600.200  3.407E-09
2600.400  4.647E-09
2600.600  4.973E-09
2600.800  4.981E-09
2601.000  4.948E-09
2601.200  5.106E-09
2601.400  5.252E-09
2601.600  5.248E-09
2601.800  5.295E-09
2602.000  5.317E-09
2602.200  5.134E-09
2602.400  5.215E-09
2602.600  5.253E-09
2602.800  5.360E-09
2603.000  5.361E-09
2603.200  5.316E-09
2603.400  4.965E-09
2603.600  5.011E-09
2603.800  5.172E-09
2604.000  5.277E-09
2604.200  5.282E-09
2604.400  4.805E-09
2604.600  4.957E-09
2604.800  5.012E-09
2605.000  5.091E-09
2605.200  5.088E-09
2605.400  4.986E-09
2605.600  5.031E-09
2605.800  4.536E-09
2606.000  4.188E-09
2606.200  3.357E-09
2606.400  3.231E-09
2606.600  4.661E-09
2606.800  4.944E-09
2607.000  4.981E-09
2607.200  4.264E-09
2607.400  4.578E-09
2607.600  4.332E-09
2607.800  3.199E-09
2608.000  4.681E-09
2608.200  4.686E-09
2608.400  4.861E-09
2608.600  4.831E-09
2608.800  5.156E-09
2609.000  5.179E-09
2609.200  5.139E-09
2609.400  5.121E-09
2609.600  4.269E-09
2609.800  4.392E-09
2610.000  4.639E-09
2610.200  4.901E-09
2610.400  4.982E-09
2610.600  4.271E-09
2610.800  4.285E-09
2611.000  5.074E-09
2611.200  5.132E-09
2611.400  5.034E-09
2611.600  4.942E-09
2611.800  3.939E-09
2612.000  4.460E-09
2612.200  4.606E-09
2612.400  4.271E-09
2612.600  3.176E-09
2612.800  4.747E-09
2613.000  5.003E-09
2613.200  4.998E-09
2613.400  5.070E-09
2613.600  5.204E-09
2613.800  5.191E-09
2614.000  5.124E-09
2614.200  4.448E-09
2614.400  3.547E-09
2614.600  3.764E-09
2614.800  4.195E-09
2615.000  4.511E-09
2615.200  4.763E-09
2615.400  4.823E-09
2615.600  4.802E-09
2615.800  5.275E-09
2616.000  5.291E-09
2616.200  5.253E-09
2616.400  5.154E-09
2616.600  5.230E-09
2616.800  5.194E-09
2617.000  5.209E-09
2617.200  5.235E-09
2617.400  5.332E-09
2617.600  5.266E-09
2617.800  5.246E-09
2618.000  5.174E-09
2618.200  4.331E-09
2618.400  4.446E-09
2618.600  4.929E-09
2618.800  4.236E-09
2619.000  5.097E-09
2619.200  5.090E-09
2619.400  5.161E-09
2619.600  5.094E-09
2619.800  4.530E-09
2620.000  5.184E-09
2620.200  5.127E-09
2620.400  5.235E-09
2620.600  5.228E-09
2620.800  4.784E-09
2621.000  3.732E-09
2621.200  3.735E-09
2621.400  4.253E-09
2621.600  5.189E-09
2621.800  5.255E-09
2622.000  5.252E-09
2622.200  5.061E-09
2622.400  3.985E-09
2622.600  5.132E-09
2622.800  5.179E-09
2623.000  5.230E-09
2623.200  5.233E-09
2623.400  5.144E-09
2623.600  5.130E-09
2623.800  4.491E-09
2624.000  4.845E-09
2624.200  4.781E-09
2624.400  4.093E-09
2624.600  5.141E-09
2624.800  5.188E-09
2625.000  5.223E-09
2625.200  5.219E-09
2625.400  5.089E-09
2625.600  5.093E-09
2625.800  5.076E-09
2626.000  4.996E-09
2626.200  3.430E-09
2626.400  3.316E-09
2626.600  4.894E-09
2626.800  5.183E-09
2627.000  5.173E-09
2627.200  3.996E-09
2627.400  4.765E-09
2627.600  5.218E-09
2627.800  5.211E-09
2628.000  5.225E-09
2628.200  5.224E-09
2628.400  5.212E-09
2628.600  5.080E-09
2628.800  4.824E-09
2629.000  3.255E-09
2629.200  4.322E-09
2629.400  5.089E-09
2629.600  5.175E-09
2629.800  5.222E-09
2630.000  5.216E-09
2630.200  4.646E-09
2630.400  4.981E-09
2630.600  5.051E-09
2630.800  4.022E-09
2631.000  4.843E-09
2631.200  5.052E-09
2631.400  4.966E-09
2631.600  4.221E-09
2631.800  2.103E-09
2632.000  2.420E-09
2632.200  3.099E-09
2632.400  4.710E-09
2632.600  4.872E-09
2632.800  4.706E-09
2633.000  4.109E-09
2633.200  5.095E-09
2633.400  5.099E-09
2633.600  5.032E-09
2633.800  4.875E-09
2634.000  5.076E-09
2634.200  5.155E-09
2634.400  5.188E-09
2634.600  5.180E-09
2634.800  5.180E-09
2635.000  5.198E-09
2635.200  5.228E-09
2635.400  5.198E-09
2635.600  5.171E-09
2635.800  5.217E-09
2636.000  5.037E-09
2636.200  4.940E-09
2636.400  4.978E-09
2636.600  5.142E-09
2636.800  5.195E-09
2637.000  5.213E-09
2637.200  5.144E-09
2637.400  5.052E-09
2637.600  5.237E-09
2637.800  5.162E-09
2638.000  5.037E-09
2638.200  4.689E-09
2638.400  4.611E-09
2638.600  4.992E-09
2638.800  4.472E-09
2639.000  5.075E-09
2639.200  5.073E-09
2639.400  5.182E-09
2639.600  5.181E-09
2639.800  5.194E-09
2640.000  5.197E-09
2640.200  4.707E-09
2640.400  4.263E-09
2640.600  4.875E-09
2640.800  5.214E-09
2641.000  5.229E-09
2641.200  5.245E-09
2641.400  5.254E-09
2641.600  5.177E-09
2641.800  4.673E-09
2642.000  5.151E-09
2642.200  5.152E-09
2642.400  4.995E-09
2642.600  4.837E-09
2642.800  5.031E-09
2643.000  5.206E-09
2643.200  5.255E-09
2643.400  5.241E-09
2643.600  5.233E-09
2643.800  5.234E-09
2644.000  5.244E-09
2644.200  5.127E-09
2644.400  5.236E-09
2644.600  5.193E-09
2644.800  5.227E-09
2645.000  5.232E-09
2645.200  5.241E-09
2645.400  5.289E-09
2645.600  5.262E-09
2645.800  4.559E-09
2646.000  5.092E-09
2646.200  5.241E-09
2646.400  5.241E-09
2646.600  5.087E-09
2646.800  5.093E-09
2647.000  5.193E-09
2647.200  5.259E-09
2647.400  5.157E-09
2647.600  5.219E-09
2647.800  5.223E-09
2648.000  5.227E-09
2648.200  5.188E-09
2648.400  5.172E-09
2648.600  5.186E-09
2648.800  5.050E-09
2649.000  5.149E-09
2649.200  5.165E-09
2649.400  4.861E-09
2649.600  4.980E-09
2649.800  5.170E-09
2650.000  5.187E-09
2650.200  5.124E-09
2650.400  5.237E-09
2650.600  5.230E-09
2650.800  5.212E-09
2651.000  5.216E-09
2651.200  4.843E-09
2651.400  5.166E-09
2651.600  5.130E-09
2651.800  5.023E-09
2652.000  5.085E-09
2652.200  5.184E-09
2652.400  4.886E-09
2652.600  5.253E-09
2652.800  5.278E-09
2653.000  5.269E-09
2653.200  4.619E-09
2653.400  5.183E-09
2653.600  5.311E-09
2653.800  5.291E-09
2654.000  5.212E-09
2654.200  4.762E-09
2654.400  4.962E-09
2654.600  5.298E-09
2654.800  5.314E-09
2655.000  5.308E-09
2655.200  5.303E-09
2655.400  5.204E-09
2655.600  5.256E-09
2655.800  5.232E-09
2656.000  5.214E-09
2656.200  5.238E-09
2656.400  5.142E-09
2656.600  4.577E-09
2656.800  4.962E-09
2657.000  5.185E-09
2657.200  5.234E-09
2657.400  5.215E-09
2657.600  5.198E-09
2657.800  5.180E-09
2658.000  5.162E-09
2658.200  5.171E-09
2658.400  5.188E-09
2658.600  4.785E-09
2658.800  4.756E-09
2659.000  4.465E-09
2659.200  4.441E-09
2659.400  4.632E-09
2659.600  4.681E-09
2659.800  5.056E-09
2660.000  5.102E-09
2660.200  5.097E-09
2660.400  5.145E-09
2660.600  5.187E-09
2660.800  5.156E-09
2661.000  5.181E-09
2661.200  5.205E-09
2661.400  5.086E-09
2661.600  5.095E-09
2661.800  5.093E-09
2662.000  4.992E-09
2662.200  4.973E-09
2662.400  4.220E-09
2662.600  5.141E-09
2662.800  5.175E-09
2663.000  5.182E-09
2663.200  5.016E-09
2663.400  5.098E-09
2663.600  5.093E-09
2663.800  4.979E-09
2664.000  4.722E-09
2664.200  3.052E-09
2664.400  4.428E-09
2664.600  5.064E-09
2664.800  4.979E-09
2665.000  5.091E-09
2665.200  5.106E-09
2665.400  4.268E-09
2665.600  5.221E-09
2665.800  5.244E-09
2666.000  5.010E-09
2666.200  5.002E-09
2666.400  5.075E-09
2666.600  4.759E-09
2666.800  4.758E-09
2667.000  5.116E-09
2667.200  4.989E-09
2667.400  3.636E-09
2667.600  4.098E-09
2667.800  4.491E-09
2668.000  5.034E-09
2668.200  5.144E-09
2668.400  5.120E-09
2668.600  5.017E-09
2668.800  5.157E-09
2669.000  5.141E-09
2669.200  5.107E-09
2669.400  4.074E-09
2669.600  4.819E-09
2669.800  4.891E-09
2670.000  5.060E-09
2670.200  5.042E-09
2670.400  5.074E-09
2670.600  5.029E-09
2670.800  4.396E-09
2671.000  4.693E-09
2671.200  5.156E-09
2671.400  5.167E-09
2671.600  5.174E-09
2671.800  5.204E-09
2672.000  5.163E-09
2672.200  5.056E-09
2672.400  4.932E-09
2672.600  4.402E-09
2672.800  4.779E-09
2673.000  4.741E-09
2673.200  4.175E-09
2673.400  3.822E-09
2673.600  4.763E-09
2673.800  5.093E-09
2674.000  4.968E-09
2674.200  5.189E-09
2674.400  5.247E-09
2674.600  5.189E-09
2674.800  5.169E-09
2675.000  5.141E-09
2675.200  4.949E-09
2675.400  4.993E-09
2675.600  4.822E-09
2675.800  5.059E-09
2676.000  5.100E-09
2676.200  5.035E-09
2676.400  4.781E-09
2676.600  5.158E-09
2676.800  5.178E-09
2677.000  5.124E-09
2677.200  5.042E-09
2677.400  5.106E-09
2677.600  5.062E-09
2677.800  4.260E-09
2678.000  4.992E-09
2678.200  5.150E-09
2678.400  5.093E-09
2678.600  4.997E-09
2678.800  5.153E-09
2679.000  5.131E-09
2679.200  4.970E-09
2679.400  4.545E-09
2679.600  4.586E-09
2679.800  4.651E-09
2680.000  4.798E-09
2680.200  5.178E-09
2680.400  5.172E-09
2680.600  4.966E-09
2680.800  4.835E-09
2681.000  4.661E-09
2681.200  4.889E-09
2681.400  4.693E-09
2681.600  4.859E-09
2681.800  4.870E-09
2682.000  5.019E-09
2682.200  5.132E-09
2682.400  5.147E-09
2682.600  5.189E-09
2682.800  5.165E-09
2683.000  5.075E-09
2683.200  5.025E-09
2683.400  5.084E-09
2683.600  4.937E-09
2683.800  4.989E-09
2684.000  5.093E-09
2684.200  5.092E-09
2684.400  5.119E-09
2684.600  5.031E-09
2684.800  5.100E-09
2685.000  5.075E-09
2685.200  4.903E-09
2685.400  4.217E-09
2685.600  4.349E-09
2685.800  4.839E-09
2686.000  5.095E-09
2686.200  5.119E-09
2686.400  5.090E-09
2686.600  4.747E-09
2686.800  4.829E-09
2687.000  4.833E-09
2687.200  5.066E-09
2687.400  5.079E-09
2687.600  5.046E-09
2687.800  4.164E-09
2688.000  5.009E-09
2688.200  5.109E-09
2688.400  5.108E-09
2688.600  4.739E-09
2688.800  4.396E-09
2689.000  3.815E-09
2689.200  4.859E-09
2689.400  4.964E-09
2689.600  4.958E-09
2689.800  4.730E-09
2690.000  4.865E-09
2690.200  5.060E-09
2690.400  5.020E-09
2690.600  4.944E-09
2690.800  5.002E-09
2691.000  4.904E-09
2691.200  5.097E-09
2691.400  5.066E-09
2691.600  4.676E-09
2691.800  4.534E-09
2692.000  5.121E-09
2692.200  5.192E-09
2692.400  4.824E-09
2692.600  4.703E-09
2692.800  4.806E-09
2693.000  4.977E-09
2693.200  4.617E-09
2693.400  3.519E-09
2693.600  4.452E-09
2693.800  4.566E-09
2694.000  4.746E-09
2694.200  4.573E-09
2694.400  4.620E-09
2694.600  4.753E-09
2694.800  4.912E-09
2695.000  5.039E-09
2695.200  5.060E-09
2695.400  4.865E-09
2695.600  5.090E-09
2695.800  5.048E-09
2696.000  4.916E-09
2696.200  5.030E-09
2696.400  5.116E-09
2696.600  5.115E-09
2696.800  5.014E-09
2697.000  5.021E-09
2697.200  5.105E-09
2697.400  4.949E-09
2697.600  5.044E-09
2697.800  5.069E-09
2698.000  4.829E-09
2698.200  4.236E-09
2698.400  4.536E-09
2698.600  4.203E-09
2698.800  4.737E-09
2699.000  4.607E-09
2699.200  3.703E-09
2699.400  3.646E-09
2699.600  4.436E-09
2699.800  4.681E-09
2700.000  4.981E-09
2700.200  5.100E-09
2700.400  5.128E-09
2700.600  5.134E-09
2700.800  5.114E-09
2701.000  5.099E-09
2701.200  5.127E-09
2701.400  5.159E-09
2701.600  4.780E-09
2701.800  3.777E-09
2702.000  4.925E-09
2702.200  4.931E-09
2702.400  3.960E-09
2702.600  5.065E-09
2702.800  4.976E-09
2703.000  5.088E-09
2703.200  5.127E-09
2703.400  5.191E-09
2703.600  5.177E-09
2703.800  5.201E-09
2704.000  5.197E-09
2704.200  4.652E-09
2704.400  4.205E-09
2704.600  3.885E-09
2704.800  4.907E-09
2705.000  5.160E-09
2705.200  4.979E-09
2705.400  5.029E-09
2705.600  5.109E-09
2705.800  5.111E-09
2706.000  5.125E-09
2706.200  5.008E-09
2706.400  4.190E-09
2706.600  4.805E-09
2706.800  4.708E-09
2707.000  4.889E-09
2707.200  4.729E-09
2707.400  4.792E-09
2707.600  4.966E-09
2707.800  4.495E-09
2708.000  4.927E-09
2708.200  4.742E-09
2708.400  4.995E-09
2708.600  5.016E-09
2708.800  5.118E-09
2709.000  5.049E-09
2709.200  4.265E-09
2709.400  4.315E-09
2709.600  4.106E-09
2709.800  3.998E-09
2710.000  3.997E-09
2710.200  4.960E-09
2710.400  5.054E-09
2710.600  4.847E-09
2710.800  4.716E-09
2711.000  4.483E-09
2711.200  4.649E-09
2711.400  4.785E-09
2711.600  4.742E-09
2711.800  4.966E-09
2712.000  4.981E-09
2712.200  4.796E-09
2712.400  3.643E-09
2712.600  4.489E-09
2712.800  4.947E-09
2713.000  4.030E-09
2713.200  4.974E-09
2713.400  5.198E-09
2713.600  5.143E-09
2713.800  5.131E-09
2714.000  5.134E-09
2714.200  5.129E-09
2714.400  5.091E-09
2714.600  5.076E-09
2714.800  5.042E-09
2715.000  4.478E-09
2715.200  4.424E-09
2715.400  5.086E-09
2715.600  5.121E-09
2715.800  5.092E-09
2716.000  5.096E-09
2716.200  5.063E-09
2716.400  4.811E-09
2716.600  5.071E-09
2716.800  4.910E-09
2717.000  4.552E-09
2717.200  4.710E-09
2717.400  4.358E-09
2717.600  5.005E-09
2717.800  5.073E-09
2718.000  5.035E-09
2718.200  4.306E-09
2718.400  4.905E-09
2718.600  4.805E-09
2718.800  4.899E-09
2719.000  4.602E-09
2719.200  4.405E-09
2719.400  4.842E-09
2719.600  4.875E-09
2719.800  4.160E-09
2720.000  4.383E-09
2720.200  4.906E-09
2720.400  4.772E-09
2720.600  4.440E-09
2720.800  4.388E-09
2721.000  4.944E-09
2721.200  5.079E-09
2721.400  5.029E-09
2721.600  4.512E-09
2721.800  5.152E-09
2722.000  5.190E-09
2722.200  5.204E-09
2722.400  5.151E-09
2722.600  4.375E-09
2722.800  4.501E-09
2723.000  5.176E-09
2723.200  5.172E-09
2723.400  4.599E-09
2723.600  5.082E-09
2723.800  5.112E-09
2724.000  5.025E-09
2724.200  4.383E-09
2724.400  4.671E-09
2724.600  4.886E-09
2724.800  4.704E-09
2725.000  4.885E-09
2725.200  4.803E-09
2725.400  4.866E-09
2725.600  3.934E-09
2725.800  5.044E-09
2726.000  5.084E-09
2726.200  5.064E-09
2726.400  5.017E-09
2726.600  4.767E-09
2726.800  4.765E-09
2727.000  4.740E-09
2727.200  4.483E-09
2727.400  5.026E-09
2727.600  5.034E-09
2727.800  5.030E-09
2728.000  4.003E-09
2728.200  2.829E-09
2728.400  4.758E-09
2728.600  4.918E-09
2728.800  4.889E-09
2729.000  5.028E-09
2729.200  5.020E-09
2729.400  4.559E-09
2729.600  4.311E-09
2729.800  5.076E-09
2730.000  5.075E-09
2730.200  4.940E-09
2730.400  5.017E-09
2730.600  5.055E-09
2730.800  5.097E-09
2731.000  5.093E-09
2731.200  5.080E-09
2731.400  4.216E-09
2731.600  4.985E-09
2731.800  5.092E-09
2732.000  5.091E-09
2732.200  5.165E-09
2732.400  5.155E-09
2732.600  5.034E-09
2732.800  4.950E-09
2733.000  5.001E-09
2733.200  4.622E-09
2733.400  5.089E-09
2733.600  5.004E-09
2733.800  5.095E-09
2734.000  5.099E-09
2734.200  4.772E-09
2734.400  4.985E-09
2734.600  5.047E-09
2734.800  5.043E-09
2735.000  5.051E-09
2735.200  5.008E-09
2735.400  4.974E-09
2735.600  4.965E-09
2735.800  4.992E-09
2736.000  5.007E-09
2736.200  4.781E-09
2736.400  5.055E-09
2736.600  5.079E-09
2736.800  5.075E-09
2737.000  5.051E-09
2737.200  4.675E-09
2737.400  4.640E-09
2737.600  4.115E-09
2737.800  4.322E-09
2738.000  4.496E-09
2738.200  4.489E-09
2738.400  4.720E-09
2738.600  5.026E-09
2738.800  5.026E-09
2739.000  5.051E-09
2739.200  5.064E-09
2739.400  5.066E-09
2739.600  5.002E-09
2739.800  4.924E-09
2740.000  4.771E-09
2740.200  3.285E-09
2740.400  4.127E-09
2740.600  4.522E-09
2740.800  4.258E-09
2741.000  5.065E-09
2741.200  5.104E-09
2741.400  5.063E-09
2741.600  5.072E-09
2741.800  5.105E-09
2742.000  4.875E-09
2742.200  4.947E-09
2742.400  5.170E-09
2742.600  5.038E-09
2742.800  4.076E-09
2743.000  4.301E-09
2743.200  4.744E-09
2743.400  4.897E-09
2743.600  4.877E-09
2743.800  4.310E-09
2744.000  4.332E-09
2744.200  4.472E-09
2744.400  4.282E-09
2744.600  4.820E-09
2744.800  4.708E-09
2745.000  4.868E-09
2745.200  4.883E-09
2745.400  4.895E-09
2745.600  4.512E-09
2745.800  4.894E-09
2746.000  4.924E-09
2746.200  4.945E-09
2746.400  4.982E-09
2746.600  4.984E-09
2746.800  4.661E-09
2747.000  3.778E-09
2747.200  3.073E-09
2747.400  4.202E-09
2747.600  3.851E-09
2747.800  3.878E-09
2748.000  4.801E-09
2748.200  4.915E-09
2748.400  4.956E-09
2748.600  4.940E-09
2748.800  4.953E-09
2749.000  5.007E-09
2749.200  5.003E-09
2749.400  4.958E-09
2749.600  4.576E-09
2749.800  2.782E-09
2750.000  1.367E-09
2750.200  3.420E-09
2750.400  4.719E-09
2750.600  4.714E-09
2750.800  4.295E-09
2751.000  5.052E-09
2751.200  5.056E-09
2751.400  4.307E-09
2751.600  4.150E-09
2751.800  4.157E-09
2752.000  5.050E-09
2752.200  5.054E-09
2752.400  4.911E-09
2752.600  3.956E-09
2752.800  4.458E-09
2753.000  5.017E-09
2753.200  5.040E-09
2753.400  5.006E-09
2753.600  4.968E-09
2753.800  4.839E-09
2754.000  3.648E-09
2754.200  4.660E-09
2754.400  4.632E-09
2754.600  4.894E-09
2754.800  4.881E-09
2755.000  4.601E-09
2755.200  4.976E-09
2755.400  4.978E-09
2755.600  4.355E-09
2755.800  4.670E-09
2756.000  4.738E-09
2756.200  4.564E-09
2756.400  3.013E-09
2756.600  4.287E-09
2756.800  4.562E-09
2757.000  4.229E-09
2757.200  4.217E-09
2757.400  4.787E-09
2757.600  4.647E-09
2757.800  4.560E-09
2758.000  4.885E-09
2758.200  4.879E-09
2758.400  4.225E-09
2758.600  4.902E-09
2758.800  4.986E-09
2759.000  5.001E-09
2759.200  4.981E-09
2759.400  4.946E-09
2759.600  4.845E-09
2759.800  4.621E-09
2760.000  4.462E-09
2760.200  4.465E-09
2760.400  4.464E-09
2760.600  4.628E-09
2760.800  4.554E-09
2761.000  4.344E-09
2761.200  4.752E-09
2761.400  4.967E-09
2761.600  4.968E-09
2761.800  4.935E-09
2762.000  4.925E-09
2762.200  4.993E-09
2762.400  4.827E-09
2762.600  4.121E-09
2762.800  4.574E-09
2763.000  4.445E-09
2763.200  3.645E-09
2763.400  4.087E-09
2763.600  4.893E-09
2763.800  4.982E-09
2764.000  5.031E-09
2764.200  4.927E-09
2764.400  4.589E-09
2764.600  4.513E-09
2764.800  4.696E-09
2765.000  4.784E-09
2765.200  4.999E-09
2765.400  4.926E-09
2765.600  4.654E-09
2765.800  4.895E-09
2766.000  4.890E-09
2766.200  4.273E-09
2766.400  4.489E-09
2766.600  4.743E-09
2766.800  4.870E-09
2767.000  4.853E-09
2767.200  4.074E-09
2767.400  4.786E-09
2767.600  4.993E-09
2767.800  4.992E-09
2768.000  4.902E-09
2768.200  3.564E-09
2768.400  4.849E-09
2768.600  4.897E-09
2768.800  4.844E-09
2769.000  4.790E-09
2769.200  4.551E-09
2769.400  4.487E-09
2769.600  4.137E-09
2769.800  3.604E-09
2770.000  3.555E-09
2770.200  4.642E-09
2770.400  4.894E-09
2770.600  5.013E-09
2770.800  5.052E-09
2771.000  4.949E-09
2771.200  4.367E-09
2771.400  5.021E-09
2771.600  5.047E-09
2771.800  4.954E-09
2772.000  4.772E-09
2772.200  4.767E-09
2772.400  4.913E-09
2772.600  4.922E-09
2772.800  4.831E-09
2773.000  4.917E-09
2773.200  4.953E-09
2773.400  4.764E-09
2773.600  4.981E-09
2773.800  4.988E-09
2774.000  4.755E-09
2774.200  5.011E-09
2774.400  5.001E-09
2774.600  5.014E-09
2774.800  5.010E-09
2775.000  4.892E-09
2775.200  4.579E-09
2775.400  4.041E-09
2775.600  4.890E-09
2775.800  4.904E-09
2776.000  4.724E-09
2776.200  4.717E-09
2776.400  4.795E-09
2776.600  4.921E-09
2776.800  4.768E-09
2777.000  4.798E-09
2777.200  4.813E-09
2777.400  4.122E-09
2777.600  4.494E-09
2777.800  5.049E-09
2778.000  5.066E-09
2778.200  5.036E-09
2778.400  4.976E-09
2778.600  4.056E-09
2778.800  4.034E-09
2779.000  4.331E-09
2779.200  4.967E-09
2779.400  5.004E-09
2779.600  4.922E-09
2779.800  4.779E-09
2780.000  3.902E-09
2780.200  4.905E-09
2780.400  4.889E-09
2780.600  3.732E-09
2780.800  4.431E-09
2781.000  4.383E-09
2781.200  4.914E-09
2781.400  4.927E-09
2781.600  4.626E-09
2781.800  4.729E-09
2782.000  4.717E-09
2782.200  4.678E-09
2782.400  5.002E-09
2782.600  4.975E-09
2782.800  4.893E-09
2783.000  4.651E-09
2783.200  4.736E-09
2783.400  4.846E-09
2783.600  4.713E-09
2783.800  4.719E-09
2784.000  4.902E-09
2784.200  4.869E-09
2784.400  3.889E-09
2784.600  4.685E-09
2784.800  4.714E-09
2785.000  4.669E-09
2785.200  4.853E-09
2785.400  4.923E-09
2785.600  4.912E-09
2785.800  4.414E-09
2786.000  4.765E-09
2786.200  4.907E-09
2786.400  4.483E-09
2786.600  4.956E-09
2786.800  4.978E-09
2787.000  4.967E-09
2787.200  4.775E-09
2787.400  4.976E-09
2787.600  5.005E-09
2787.800  4.981E-09
2788.000  4.745E-09
2788.200  4.762E-09
2788.400  4.599E-09
2788.600  4.729E-09
2788.800  4.508E-09
2789.000  4.998E-09
2789.200  5.006E-09
2789.400  4.997E-09
2789.600  4.979E-09
2789.800  4.895E-09
2790.000  4.763E-09
2790.200  4.854E-09
2790.400  4.908E-09
2790.600  4.872E-09
2790.800  4.797E-09
2791.000  4.837E-09
2791.200  4.698E-09
2791.400  3.652E-09
2791.600  3.873E-09
2791.800  4.637E-09
2792.000  4.737E-09
2792.200  4.749E-09
2792.400  4.769E-09
2792.600  4.766E-09
2792.800  4.438E-09
2793.000  4.674E-09
2793.200  4.720E-09
2793.400  4.703E-09
2793.600  4.670E-09
2793.800  4.649E-09
2794.000  4.461E-09
2794.200  4.451E-09
2794.400  4.321E-09
2794.600  3.511E-09
2794.800  4.040E-09
2795.000  3.997E-09
2795.200  3.696E-09
2795.400  3.362E-09
2795.600  2.722E-09
2795.800  2.079E-09
2796.000  1.303E-09
2796.200  6.904E-10
2796.400  1.039E-09
2796.600  1.768E-09
2796.800  2.496E-09
2797.000  3.132E-09
2797.200  3.358E-09
2797.400  3.720E-09
2797.600  4.012E-09
2797.800  4.133E-09
2798.000  4.287E-09
2798.200  4.295E-09
2798.400  4.270E-09
2798.600  3.183E-09
2798.800  3.323E-09
2799.000  4.337E-09
2799.200  4.613E-09
2799.400  4.585E-09
2799.600  4.734E-09
2799.800  4.739E-09
2800.000  4.066E-09
2800.200  4.617E-09
2800.400  4.617E-09
2800.600  4.728E-09
2800.800  4.717E-09
2801.000  4.656E-09
2801.200  4.649E-09
2801.400  4.410E-09
2801.600  4.382E-09
2801.800  4.447E-09
2802.000  4.424E-09
2802.200  4.371E-09
2802.400  4.216E-09
2802.600  3.954E-09
2802.800  3.499E-09
2803.000  2.798E-09
2803.200  1.787E-09
2803.400  7.944E-10
2803.600  1.586E-09
2803.800  2.542E-09
2804.000  3.197E-09
2804.200  3.808E-09
2804.400  4.102E-09
2804.600  4.128E-09
2804.800  4.460E-09
2805.000  4.526E-09
2805.200  4.530E-09
2805.400  4.530E-09
2805.600  4.593E-09
2805.800  4.658E-09
2806.000  4.481E-09
2806.200  4.651E-09
2806.400  4.607E-09
2806.600  4.798E-09
2806.800  4.906E-09
2807.000  4.894E-09
2807.200  4.860E-09
2807.400  4.909E-09
2807.600  4.831E-09
2807.800  4.687E-09
2808.000  4.923E-09
2808.200  4.927E-09
2808.400  4.994E-09
2808.600  5.015E-09
2808.800  5.004E-09
2809.000  4.936E-09
2809.200  4.982E-09
2809.400  4.986E-09
2809.600  4.992E-09
2809.800  4.977E-09
2810.000  4.882E-09
2810.200  4.955E-09
2810.400  4.882E-09
2810.600  4.815E-09
2810.800  4.849E-09
2811.000  4.644E-09
2811.200  4.998E-09
2811.400  5.013E-09
2811.600  4.906E-09
2811.800  4.764E-09
2812.000  4.490E-09
2812.200  4.946E-09
2812.400  4.973E-09
2812.600  4.847E-09
2812.800  4.537E-09
2813.000  4.690E-09
2813.200  4.385E-09
2813.400  4.752E-09
2813.600  4.905E-09
2813.800  4.878E-09
2814.000  4.565E-09
2814.200  4.540E-09
2814.400  4.520E-09
2814.600  4.951E-09
2814.800  4.920E-09
2815.000  4.867E-09
2815.200  4.876E-09
2815.400  4.894E-09
2815.600  4.901E-09
2815.800  4.765E-09
2816.000  4.943E-09
2816.200  4.937E-09
2816.400  4.969E-09
2816.600  4.985E-09
2816.800  4.909E-09
2817.000  4.666E-09
2817.200  4.957E-09
2817.400  4.959E-09
2817.600  4.509E-09
2817.800  4.617E-09
2818.000  4.909E-09
2818.200  4.920E-09
2818.400  4.873E-09
2818.600  4.665E-09
2818.800  4.758E-09
2819.000  4.625E-09
2819.200  4.920E-09
2819.400  5.036E-09
2819.600  4.990E-09
2819.800  5.009E-09
2820.000  4.767E-09
2820.200  4.982E-09
2820.400  5.030E-09
2820.600  5.015E-09
2820.800  5.060E-09
2821.000  5.025E-09
2821.200  5.048E-09
2821.400  5.074E-09
2821.600  5.102E-09
2821.800  5.112E-09
2822.000  5.020E-09
2822.200  5.053E-09
2822.400  5.061E-09
2822.600  4.969E-09
2822.800  4.452E-09
2823.000  4.424E-09
2823.200  4.639E-09
2823.400  4.846E-09
2823.600  5.012E-09
2823.800  5.011E-09
2824.000  4.442E-09
2824.200  4.930E-09
2824.400  4.965E-09
2824.600  4.958E-09
2824.800  4.960E-09
2825.000  4.952E-09
2825.200  4.955E-09
2825.400  4.868E-09
2825.600  4.987E-09
2825.800  4.977E-09
2826.000  4.838E-09
2826.200  4.664E-09
2826.400  4.415E-09
2826.600  4.361E-09
2826.800  4.531E-09
2827.000  5.008E-09
2827.200  5.020E-09
2827.400  5.047E-09
2827.600  5.030E-09
2827.800  4.965E-09
2828.000  4.921E-09
2828.200  4.571E-09
2828.400  4.914E-09
2828.600  4.593E-09
2828.800  4.783E-09
2829.000  5.000E-09
2829.200  4.912E-09
2829.400  3.824E-09
2829.600  4.898E-09
2829.800  4.967E-09
2830.000  4.996E-09
2830.200  4.994E-09
2830.400  4.984E-09
2830.600  4.966E-09
2830.800  4.859E-09
2831.000  4.730E-09
2831.200  3.859E-09
2831.400  4.469E-09
2831.600  4.739E-09
2831.800  4.940E-09
2832.000  4.970E-09
2832.200  4.590E-09
2832.400  4.659E-09
2832.600  4.942E-09
2832.800  4.770E-09
2833.000  4.388E-09
2833.200  4.516E-09
2833.400  4.961E-09
2833.600  4.966E-09
2833.800  4.630E-09
2834.000  4.696E-09
2834.200  4.837E-09
2834.400  4.882E-09
2834.600  4.836E-09
2834.800  4.804E-09
2835.000  4.509E-09
2835.200  4.921E-09
2835.400  4.934E-09
2835.600  4.853E-09
2835.800  4.952E-09
2836.000  4.957E-09
2836.200  4.780E-09
2836.400  3.066E-09
2836.600  4.845E-09
2836.800  4.846E-09
2837.000  4.583E-09
2837.200  4.345E-09
2837.400  4.901E-09
2837.600  4.973E-09
2837.800  4.970E-09
2838.000  4.544E-09
2838.200  4.989E-09
2838.400  5.004E-09
2838.600  4.695E-09
2838.800  4.591E-09
2839.000  4.816E-09
2839.200  4.960E-09
2839.400  4.891E-09
2839.600  4.841E-09
2839.800  5.067E-09
2840.000  5.045E-09
2840.200  4.574E-09
2840.400  4.249E-09
2840.600  4.160E-09
2840.800  4.194E-09
2841.000  4.191E-09
2841.200  3.978E-09
2841.400  3.713E-09
2841.600  4.763E-09
2841.800  4.940E-09
2842.000  4.831E-09
2842.200  4.992E-09
2842.400  5.034E-09
2842.600  4.697E-09
2842.800  4.484E-09
2843.000  4.789E-09
2843.200  4.798E-09
2843.400  4.774E-09
2843.600  4.826E-09
2843.800  4.800E-09
2844.000  3.157E-09
2844.200  4.363E-09
2844.400  4.827E-09
2844.600  4.794E-09
2844.800  4.674E-09
2845.000  4.954E-09
2845.200  4.958E-09
2845.400  4.891E-09
2845.600  4.782E-09
2845.800  4.839E-09
2846.000  4.807E-09
2846.200  4.073E-09
2846.400  4.632E-09
2846.600  4.833E-09
2846.800  4.873E-09
2847.000  4.874E-09
2847.200  4.536E-09
2847.400  4.650E-09
2847.600  4.907E-09
2847.800  4.900E-09
2848.000  4.764E-09
2848.200  4.937E-09
2848.400  4.830E-09
2848.600  4.527E-09
2848.800  3.799E-09
2849.000  4.060E-09
2849.200  4.867E-09
2849.400  4.944E-09
2849.600  4.654E-09
2849.800  4.851E-09
2850.000  4.809E-09
2850.200  4.531E-09
2850.400  3.983E-09
2850.600  3.961E-09
2850.800  4.918E-09
2851.000  4.919E-09
2851.200  4.878E-09
2851.400  4.893E-09
2851.600  4.951E-09
2851.800  4.792E-09
2852.000  4.353E-09
2852.200  4.222E-09
2852.400  4.218E-09
2852.600  4.329E-09
2852.800  3.816E-09
2853.000  4.566E-09
2853.200  4.887E-09
2853.400  4.866E-09
2853.600  4.801E-09
2853.800  4.755E-09
2854.000  4.609E-09
2854.200  4.940E-09
2854.400  4.927E-09
2854.600  4.806E-09
2854.800  4.868E-09
2855.000  4.892E-09
2855.200  4.823E-09
2855.400  4.864E-09
2855.600  4.891E-09
2855.800  4.498E-09
2856.000  4.767E-09
2856.200  4.723E-09
2856.400  3.671E-09
2856.600  4.686E-09
2856.800  4.553E-09
2857.000  4.051E-09
2857.200  4.565E-09
2857.400  4.557E-09
2857.600  4.013E-09
2857.800  4.161E-09
2858.000  4.145E-09
2858.200  4.529E-09
2858.400  4.928E-09
2858.600  4.864E-09
2858.800  4.691E-09
2859.000  4.315E-09
2859.200  3.842E-09
2859.400  3.855E-09
2859.600  3.563E-09
2859.800  4.809E-09
2860.000  4.922E-09
2860.200  4.905E-09
2860.400  4.869E-09
2860.600  4.862E-09
2860.800  4.871E-09
2861.000  4.882E-09
2861.200  4.907E-09
2861.400  4.891E-09
2861.600  4.282E-09
2861.800  4.179E-09
2862.000  4.731E-09
2862.200  4.862E-09
2862.400  4.869E-09
2862.600  4.798E-09
2862.800  4.826E-09
2863.000  4.640E-09
2863.200  4.107E-09
2863.400  4.402E-09
2863.600  4.947E-09
2863.800  4.956E-09
2864.000  4.972E-09
2864.200  4.971E-09
2864.400  4.723E-09
2864.600  4.839E-09
2864.800  4.749E-09
2865.000  4.648E-09
2865.200  4.798E-09
2865.400  4.895E-09
2865.600  4.787E-09
2865.800  3.464E-09
2866.000  3.913E-09
2866.200  4.631E-09
2866.400  4.757E-09
2866.600  4.632E-09
2866.800  4.845E-09
2867.000  4.943E-09
2867.200  4.943E-09
2867.400  4.377E-09
2867.600  4.172E-09
2867.800  4.146E-09
2868.000  4.887E-09
2868.200  4.881E-09
2868.400  3.937E-09
2868.600  4.830E-09
2868.800  4.863E-09
2869.000  4.897E-09
2869.200  4.684E-09
2869.400  4.668E-09
2869.600  3.939E-09
2869.800  4.194E-09
2870.000  4.420E-09
2870.200  4.769E-09
2870.400  4.750E-09
2870.600  4.703E-09
2870.800  4.583E-09
2871.000  4.550E-09
2871.200  3.830E-09
2871.400  4.643E-09
2871.600  4.793E-09
2871.800  4.052E-09
2872.000  4.743E-09
2872.200  4.807E-09
2872.400  4.882E-09
2872.600  4.895E-09
2872.800  4.890E-09
2873.000  4.661E-09
2873.200  4.571E-09
2873.400  4.844E-09
2873.600  4.807E-09
2873.800  4.829E-09
2874.000  4.793E-09
2874.200  3.562E-09
2874.400  4.154E-09
2874.600  4.408E-09
2874.800  4.731E-09
2875.000  4.922E-09
2875.200  4.931E-09
2875.400  4.896E-09
2875.600  4.582E-09
2875.800  4.553E-09
2876.000  4.384E-09
2876.200  4.713E-09
2876.400  4.855E-09
2876.600  4.590E-09
2876.800  3.582E-09
2877.000  3.744E-09
2877.200  4.713E-09
2877.400  4.670E-09
2877.600  4.583E-09
2877.800  4.877E-09
2878.000  4.840E-09
2878.200  4.396E-09
2878.400  4.772E-09
2878.600  4.628E-09
2878.800  4.634E-09
2879.000  4.716E-09
2879.200  4.262E-09
2879.400  4.918E-09
2879.600  4.920E-09
2879.800  4.828E-09
2880.000  4.321E-09
2880.200  4.230E-09
2880.400  4.710E-09
2880.600  4.714E-09
2880.800  4.683E-09
2881.000  4.878E-09
2881.200  4.880E-09
2881.400  4.588E-09
2881.600  3.886E-09
2881.800  4.824E-09
2882.000  4.891E-09
2882.200  4.781E-09
2882.400  4.418E-09
2882.600  4.606E-09
2882.800  4.868E-09
2883.000  4.924E-09
2883.200  4.806E-09
2883.400  4.966E-09
2883.600  4.995E-09
2883.800  5.007E-09
2884.000  5.000E-09
2884.200  4.999E-09
2884.400  4.410E-09
2884.600  4.409E-09
2884.800  4.357E-09
2885.000  4.945E-09
2885.200  5.008E-09
2885.400  4.906E-09
2885.600  4.851E-09
2885.800  4.898E-09
2886.000  5.003E-09
2886.200  5.009E-09
2886.400  4.935E-09
2886.600  4.663E-09
2886.800  4.462E-09
2887.000  4.550E-09
2887.200  4.675E-09
2887.400  4.382E-09
2887.600  4.845E-09
2887.800  4.870E-09
2888.000  4.683E-09
2888.200  4.786E-09
2888.400  4.786E-09
2888.600  4.666E-09
2888.800  4.308E-09
2889.000  4.816E-09
2889.200  4.849E-09
2889.400  4.619E-09
2889.600  4.425E-09
2889.800  4.373E-09
2890.000  4.012E-09
2890.200  3.890E-09
2890.400  4.051E-09
2890.600  4.676E-09
2890.800  4.906E-09
2891.000  4.899E-09
2891.200  4.840E-09
2891.400  4.842E-09
2891.600  4.825E-09
2891.800  4.110E-09
2892.000  4.271E-09
2892.200  4.422E-09
2892.400  4.485E-09
2892.600  4.744E-09
2892.800  4.869E-09
2893.000  4.817E-09
2893.200  4.086E-09
2893.400  4.045E-09
2893.600  4.122E-09
2893.800  4.627E-09
2894.000  4.489E-09
2894.200  4.765E-09
2894.400  4.922E-09
2894.600  4.890E-09
2894.800  4.760E-09
2895.000  4.584E-09
2895.200  4.742E-09
2895.400  4.694E-09
2895.600  4.119E-09
2895.800  4.168E-09
2896.000  4.469E-09
2896.200  4.930E-09
2896.400  4.917E-09
2896.600  4.866E-09
2896.800  4.848E-09
2897.000  4.512E-09
2897.200  4.152E-09
2897.400  4.262E-09
2897.600  4.531E-09
2897.800  4.544E-09
2898.000  4.237E-09
2898.200  4.738E-09
2898.400  4.588E-09
2898.600  4.662E-09
2898.800  4.816E-09
2899.000  4.821E-09
2899.200  4.470E-09
2899.400  4.204E-09
2899.600  4.739E-09
2899.800  4.720E-09
2900.000  4.517E-09
2900.200  4.526E-09
2900.400  4.918E-09
2900.600  4.904E-09
2900.800  4.691E-09
2901.000  4.829E-09
2901.200  4.863E-09
2901.400  4.829E-09
2901.600  4.818E-09
2901.800  4.783E-09
2902.000  4.880E-09
2902.200  4.872E-09
2902.400  4.876E-09
2902.600  4.820E-09
2902.800  4.813E-09
2903.000  4.732E-09
2903.200  4.476E-09
2903.400  4.808E-09
2903.600  4.775E-09
2903.800  4.691E-09
2904.000  4.871E-09
2904.200  4.927E-09
2904.400  4.933E-09
2904.600  4.835E-09
2904.800  4.793E-09
2905.000  4.884E-09
2905.200  4.867E-09
2905.400  4.896E-09
2905.600  4.882E-09
2905.800  4.855E-09
2906.000  4.804E-09
2906.200  4.832E-09
2906.400  4.846E-09
2906.600  4.842E-09
2906.800  4.688E-09
2907.000  4.487E-09
2907.200  4.446E-09
2907.400  4.816E-09
2907.600  4.808E-09
2907.800  4.826E-09
2908.000  4.831E-09
2908.200  4.523E-09
2908.400  4.469E-09
2908.600  4.260E-09
2908.800  4.671E-09
2909.000  4.666E-09
2909.200  4.713E-09
2909.400  4.690E-09
2909.600  4.240E-09
2909.800  4.795E-09
2910.000  4.796E-09
2910.200  4.806E-09
2910.400  4.781E-09
2910.600  4.686E-09
2910.800  4.484E-09
2911.000  4.542E-09
2911.200  4.447E-09
2911.400  4.333E-09
2911.600  4.498E-09
2911.800  4.502E-09
2912.000  4.820E-09
2912.200  4.842E-09
2912.400  4.562E-09
2912.600  4.792E-09
2912.800  4.771E-09
2913.000  4.781E-09
2913.200  4.820E-09
2913.400  4.852E-09
2913.600  4.818E-09
2913.800  4.747E-09
2914.000  4.779E-09
2914.200  4.782E-09
2914.400  4.725E-09
2914.600  4.827E-09
2914.800  4.877E-09
2915.000  4.825E-09
2915.200  4.862E-09
2915.400  4.862E-09
2915.600  4.845E-09
2915.800  4.812E-09
2916.000  4.556E-09
2916.200  4.560E-09
2916.400  4.792E-09
2916.600  4.803E-09
2916.800  4.598E-09
2917.000  4.813E-09
2917.200  4.908E-09
2917.400  4.879E-09
2917.600  4.741E-09
2917.800  4.643E-09
2918.000  4.661E-09
2918.200  4.251E-09
2918.400  4.772E-09
2918.600  4.808E-09
2918.800  4.745E-09
2919.000  4.749E-09
2919.200  4.719E-09
2919.400  4.718E-09
2919.600  4.725E-09
2919.800  4.716E-09
2920.000  4.755E-09
2920.200  4.768E-09
2920.400  4.754E-09
2920.600  4.722E-09
2920.800  4.687E-09
2921.000  4.671E-09
2921.200  4.639E-09
2921.400  4.744E-09
2921.600  4.747E-09
2921.800  4.686E-09
2922.000  4.465E-09
2922.200  4.761E-09
2922.400  4.737E-09
2922.600  4.158E-09
2922.800  4.523E-09
2923.000  4.782E-09
2923.200  4.776E-09
2923.400  4.799E-09
2923.600  4.858E-09
2923.800  4.832E-09
2924.000  4.564E-09
2924.200  4.289E-09
2924.400  4.273E-09
2924.600  4.248E-09
2924.800  4.184E-09
2925.000  4.762E-09
2925.200  4.757E-09
2925.400  4.261E-09
2925.600  4.834E-09
2925.800  4.848E-09
2926.000  4.868E-09
2926.200  4.876E-09
2926.400  4.819E-09
2926.600  4.814E-09
2926.800  4.743E-09
2927.000  4.612E-09
2927.200  4.531E-09
2927.400  4.103E-09
2927.600  4.672E-09
2927.800  4.427E-09
2928.000  4.706E-09
2928.200  4.804E-09
2928.400  4.839E-09
2928.600  4.829E-09
2928.800  4.627E-09
2929.000  3.912E-09
2929.200  3.946E-09
2929.400  3.410E-09
2929.600  4.573E-09
2929.800  4.636E-09
2930.000  4.638E-09
2930.200  4.575E-09
2930.400  4.712E-09
2930.600  4.714E-09
2930.800  4.736E-09
2931.000  4.752E-09
2931.200  4.746E-09
2931.400  4.692E-09
2931.600  4.185E-09
2931.800  4.676E-09
2932.000  4.767E-09
2932.200  4.760E-09
2932.400  4.747E-09
2932.600  4.794E-09
2932.800  4.800E-09
2933.000  4.770E-09
2933.200  4.788E-09
2933.400  4.562E-09
2933.600  4.390E-09
2933.800  3.488E-09
2934.000  4.766E-09
2934.200  4.796E-09
2934.400  4.756E-09
2934.600  4.614E-09
2934.800  4.566E-09
2935.000  4.621E-09
2935.200  4.499E-09
2935.400  4.756E-09
2935.600  4.809E-09
2935.800  4.513E-09
2936.000  4.642E-09
2936.200  4.788E-09
2936.400  4.791E-09
2936.600  4.760E-09
2936.800  4.623E-09
2937.000  4.627E-09
2937.200  3.511E-09
2937.400  4.152E-09
2937.600  4.222E-09
2937.800  4.691E-09
2938.000  4.800E-09
2938.200  4.820E-09
2938.400  4.797E-09
2938.600  4.764E-09
2938.800  4.799E-09
2939.000  4.806E-09
2939.200  4.735E-09
2939.400  4.801E-09
2939.600  4.814E-09
2939.800  4.807E-09
2940.000  3.874E-09
2940.200  3.767E-09
2940.400  4.722E-09
2940.600  4.851E-09
2940.800  4.838E-09
2941.000  4.660E-09
2941.200  4.764E-09
2941.400  4.778E-09
2941.600  4.742E-09
2941.800  4.678E-09
2942.000  4.576E-09
2942.200  4.313E-09
2942.400  4.636E-09
2942.600  4.605E-09
2942.800  4.643E-09
2943.000  4.773E-09
2943.200  4.771E-09
2943.400  4.764E-09
2943.600  4.664E-09
2943.800  4.643E-09
2944.000  4.690E-09
2944.200  4.694E-09
2944.400  4.685E-09
2944.600  4.654E-09
2944.800  4.724E-09
2945.000  4.602E-09
2945.200  3.639E-09
2945.400  4.576E-09
2945.600  4.768E-09
2945.800  4.777E-09
2946.000  4.419E-09
2946.200  4.732E-09
2946.400  4.763E-09
2946.600  4.744E-09
2946.800  4.794E-09
2947.000  4.838E-09
2947.200  4.857E-09
2947.400  4.745E-09
2947.600  4.385E-09
2947.800  4.785E-09
2948.000  4.777E-09
2948.200  4.636E-09
2948.400  3.516E-09
2948.600  4.369E-09
2948.800  4.747E-09
2949.000  4.774E-09
2949.200  4.738E-09
2949.400  4.767E-09
2949.600  4.776E-09
2949.800  4.582E-09
2950.000  3.602E-09
2950.200  4.530E-09
2950.400  4.703E-09
2950.600  4.706E-09
2950.800  4.699E-09
2951.000  4.601E-09
2951.200  4.718E-09
2951.400  4.763E-09
2951.600  4.766E-09
2951.800  4.655E-09
2952.000  4.657E-09
2952.200  4.716E-09
2952.400  4.811E-09
2952.600  4.782E-09
2952.800  4.422E-09
2953.000  4.709E-09
2953.200  4.714E-09
2953.400  4.735E-09
2953.600  4.658E-09
2953.800  4.710E-09
2954.000  4.590E-09
2954.200  4.332E-09
2954.400  4.227E-09
2954.600  3.566E-09
2954.800  4.338E-09
2955.000  4.753E-09
2955.200  4.731E-09
2955.400  4.607E-09
2955.600  4.664E-09
2955.800  4.647E-09
2956.000  4.707E-09
2956.200  4.729E-09
2956.400  4.709E-09
2956.600  4.696E-09
2956.800  4.667E-09
2957.000  4.691E-09
2957.200  4.662E-09
2957.400  4.676E-09
2957.600  4.749E-09
2957.800  4.717E-09
2958.000  4.592E-09
2958.200  4.357E-09
2958.400  4.607E-09
2958.600  4.755E-09
2958.800  4.713E-09
2959.000  4.689E-09
2959.200  4.680E-09
2959.400  4.633E-09
2959.600  4.591E-09
2959.800  4.696E-09
2960.000  4.704E-09
2960.200  4.604E-09
2960.400  4.112E-09
2960.600  4.399E-09
2960.800  4.612E-09
2961.000  4.667E-09
2961.200  4.701E-09
2961.400  4.696E-09
2961.600  4.707E-09
2961.800  4.680E-09
2962.000  4.132E-09
2962.200  4.490E-09
2962.400  4.429E-09
2962.600  4.597E-09
2962.800  4.739E-09
2963.000  4.721E-09
2963.200  4.748E-09
2963.400  4.732E-09
2963.600  4.705E-09
2963.800  4.759E-09
2964.000  4.713E-09
2964.200  4.614E-09
2964.400  4.652E-09
2964.600  4.628E-09
2964.800  4.397E-09
2965.000  4.538E-09
2965.200  4.559E-09
2965.400  3.762E-09
2965.600  4.114E-09
2965.800  3.679E-09
2966.000  4.361E-09
2966.200  4.575E-09
2966.400  4.685E-09
2966.600  4.664E-09
2966.800  4.397E-09
2967.000  4.735E-09
2967.200  4.714E-09
2967.400  4.655E-09
2967.600  4.282E-09
2967.800  4.625E-09
2968.000  4.661E-09
2968.200  4.718E-09
2968.400  4.721E-09
2968.600  4.688E-09
2968.800  4.679E-09
2969.000  4.631E-09
2969.200  4.466E-09
2969.400  4.494E-09
2969.600  4.623E-09
2969.800  4.637E-09
2970.000  4.639E-09
2970.200  4.611E-09
2970.400  4.503E-09
2970.600  4.321E-09
2970.800  4.301E-09
2971.000  4.454E-09
2971.200  4.089E-09
2971.400  4.121E-09
2971.600  4.649E-09
2971.800  4.709E-09
2972.000  4.661E-09
2972.200  4.657E-09
2972.400  4.588E-09
2972.600  4.094E-09
2972.800  4.543E-09
2973.000  4.661E-09
2973.200  4.636E-09
2973.400  4.642E-09
2973.600  4.662E-09
2973.800  4.487E-09
2974.000  4.228E-09
2974.200  4.709E-09
2974.400  4.730E-09
2974.600  4.742E-09
2974.800  4.746E-09
2975.000  4.713E-09
2975.200  4.717E-09
2975.400  4.726E-09
2975.600  4.708E-09
2975.800  4.686E-09
2976.000  4.673E-09
2976.200  4.667E-09
2976.400  4.630E-09
2976.600  4.322E-09
2976.800  4.387E-09
2977.000  4.518E-09
2977.200  4.382E-09
2977.400  4.255E-09
2977.600  4.596E-09
2977.800  4.672E-09
2978.000  4.726E-09
2978.200  4.706E-09
2978.400  4.647E-09
2978.600  4.660E-09
2978.800  4.708E-09
2979.000  4.670E-09
2979.200  4.665E-09
2979.400  4.666E-09
2979.600  4.559E-09
2979.800  4.421E-09
2980.000  4.159E-09
2980.200  4.017E-09
2980.400  4.024E-09
2980.600  4.415E-09
2980.800  4.632E-09
2981.000  4.634E-09
2981.200  4.640E-09
2981.400  4.642E-09
2981.600  4.559E-09
2981.800  4.410E-09
2982.000  4.461E-09
2982.200  4.443E-09
2982.400  4.584E-09
2982.600  4.580E-09
2982.800  4.219E-09
2983.000  4.445E-09
2983.200  4.624E-09
2983.400  4.623E-09
2983.600  4.668E-09
2983.800  4.672E-09
2984.000  4.645E-09
2984.200  4.553E-09
2984.400  4.365E-09
2984.600  4.674E-09
2984.800  4.658E-09
2985.000  4.677E-09
2985.200  4.629E-09
2985.400  4.531E-09
2985.600  3.299E-09
2985.800  4.325E-09
2986.000  4.159E-09
2986.200  3.369E-09
2986.400  4.159E-09
2986.600  4.641E-09
2986.800  4.626E-09
2987.000  4.636E-09
2987.200  4.585E-09
2987.400  4.411E-09
2987.600  4.599E-09
2987.800  4.620E-09
2988.000  4.613E-09
2988.200  4.587E-09
2988.400  4.626E-09
2988.600  4.615E-09
2988.800  4.409E-09
2989.000  4.598E-09
2989.200  4.658E-09
2989.400  4.648E-09
2989.600  4.661E-09
2989.800  4.529E-09
2990.000  4.187E-09
2990.200  4.583E-09
2990.400  4.583E-09
2990.600  4.597E-09
2990.800  4.571E-09
2991.000  4.558E-09
2991.200  4.556E-09
2991.400  4.590E-09
2991.600  4.572E-09
2991.800  4.572E-09
2992.000  4.547E-09
2992.200  4.563E-09
2992.400  4.540E-09
2992.600  4.536E-09
2992.800  4.540E-09
2993.000  4.549E-09
2993.200  4.329E-09
2993.400  4.497E-09
2993.600  4.526E-09
2993.800  4.552E-09
2994.000  4.551E-09
2994.200  4.562E-09
2994.400  4.573E-09
2994.600  4.603E-09
2994.800  4.618E-09
2995.000  4.574E-09
2995.200  4.139E-09
2995.400  4.402E-09
2995.600  4.581E-09
2995.800  4.654E-09
2996.000  4.621E-09
2996.200  4.667E-09
2996.400  4.626E-09
2996.600  4.610E-09
2996.800  4.628E-09
2997.000  4.649E-09
2997.200  4.629E-09
2997.400  4.636E-09
2997.600  4.667E-09
2997.800  4.642E-09
2998.000  4.430E-09
2998.200  4.578E-09
2998.400  4.674E-09
2998.600  4.684E-09
2998.800  4.701E-09
2999.000  4.674E-09
2999.200  4.644E-09
2999.400  4.644E-09
2999.600  4.460E-09
2999.800  4.570E-09
3000.000  4.551E-09
3000.200  4.378E-09
3000.400  4.485E-09
3000.600  4.515E-09
3000.800  4.288E-09
3001.000  4.600E-09
3001.200  4.608E-09
3001.400  4.593E-09
3001.600  4.462E-09
3001.800  4.329E-09
3002.000  4.436E-09
3002.200  4.574E-09
3002.400  4.585E-09
3002.600  4.532E-09
3002.800  4.579E-09
3003.000  4.440E-09
3003.200  4.018E-09
3003.400  3.377E-09
3003.600  4.422E-09
3003.800  4.481E-09
3004.000  4.460E-09
3004.200  4.442E-09
3004.400  4.278E-09
3004.600  4.236E-09
3004.800  4.352E-09
3005.000  4.365E-09
3005.200  4.461E-09
3005.400  4.461E-09
3005.600  4.479E-09
3005.800  4.501E-09
3006.000  4.507E-09
3006.200  4.552E-09
3006.400  4.560E-09
3006.600  4.567E-09
3006.800  4.616E-09
3007.000  4.575E-09
3007.200  4.546E-09
3007.400  4.552E-09
3007.600  4.552E-09
3007.800  4.511E-09
3008.000  4.486E-09
3008.200  4.571E-09
3008.400  4.606E-09
3008.600  4.495E-09
3008.800  4.392E-09
3009.000  4.316E-09
3009.200  4.481E-09
3009.400  4.487E-09
3009.600  4.554E-09
3009.800  4.527E-09
3010.000  4.560E-09
3010.200  4.528E-09
3010.400  4.439E-09
3010.600  4.574E-09
3010.800  4.552E-09
3011.000  4.534E-09
3011.200  4.615E-09
3011.400  4.643E-09
3011.600  4.607E-09
3011.800  4.617E-09
3012.000  4.588E-09
3012.200  4.523E-09
3012.400  4.586E-09
3012.600  4.576E-09
3012.800  4.474E-09
3013.000  4.614E-09
3013.200  4.618E-09
3013.400  4.636E-09
3013.600  4.642E-09
3013.800  4.571E-09
3014.000  4.581E-09
3014.200  4.572E-09
3014.400  4.574E-09
3014.600  4.576E-09
3014.800  4.593E-09
3015.000  4.605E-09
3015.200  4.557E-09
3015.400  4.525E-09
3015.600  4.469E-09
3015.800  4.482E-09
3016.000  4.520E-09
3016.200  4.310E-09
3016.400  4.461E-09
3016.600  4.527E-09
3016.800  4.482E-09
3017.000  4.471E-09
3017.200  4.527E-09
3017.400  4.540E-09
3017.600  4.545E-09
3017.800  4.394E-09
3018.000  4.251E-09
3018.200  4.425E-09
3018.400  4.403E-09
3018.600  4.545E-09
3018.800  4.621E-09
3019.000  4.618E-09
3019.200  4.652E-09
3019.400  4.598E-09
3019.600  4.586E-09
3019.800  4.514E-09
3020.000  4.578E-09
3020.200  4.649E-09
3020.400  4.653E-09
3020.600  4.512E-09
3020.800  4.566E-09
3021.000  4.642E-09
3021.200  4.404E-09
3021.400  3.913E-09
3021.600  4.325E-09
3021.800  4.234E-09
3022.000  4.505E-09
3022.200  4.538E-09
3022.400  4.575E-09
3022.600  4.654E-09
3022.800  4.667E-09
3023.000  4.639E-09
3023.200  4.478E-09
3023.400  4.437E-09
3023.600  4.434E-09
3023.800  4.453E-09
3024.000  4.589E-09
3024.200  4.570E-09
3024.400  4.478E-09
3024.600  4.464E-09
3024.800  4.418E-09
3025.000  4.529E-09
3025.200  4.564E-09
3025.400  4.527E-09
3025.600  4.532E-09
3025.800  4.516E-09
3026.000  4.524E-09
3026.200  4.514E-09
3026.400  4.419E-09
3026.600  4.226E-09
3026.800  4.501E-09
3027.000  4.496E-09
3027.200  4.392E-09
3027.400  3.991E-09
3027.600  4.438E-09
3027.800  4.465E-09
3028.000  4.512E-09
3028.200  4.501E-09
3028.400  4.464E-09
3028.600  4.465E-09
3028.800  4.358E-09
3029.000  4.385E-09
3029.200  4.458E-09
3029.400  4.442E-09
3029.600  4.405E-09
3029.800  4.407E-09
3030.000  4.430E-09
3030.200  4.422E-09
3030.400  4.289E-09
3030.600  4.333E-09
3030.800  4.385E-09
3031.000  4.416E-09
3031.200  4.449E-09
3031.400  4.484E-09
3031.600  4.495E-09
3031.800  4.254E-09
3032.000  4.397E-09
3032.200  4.491E-09
3032.400  4.498E-09
3032.600  4.599E-09
3032.800  4.585E-09
3033.000  4.615E-09
3033.200  4.602E-09
3033.400  4.572E-09
3033.600  4.406E-09
3033.800  4.433E-09
3034.000  4.507E-09
3034.200  4.390E-09
3034.400  4.334E-09
3034.600  4.344E-09
3034.800  4.411E-09
3035.000  4.445E-09
3035.600  4.430E-09
3035.800  4.513E-09
3036.000  4.500E-09
3036.200  4.495E-09
3036.400  4.579E-09
3036.600  4.615E-09
3036.800  4.631E-09
3037.000  4.584E-09
3037.200  4.557E-09
3037.400  4.544E-09
3037.600  4.531E-09
3037.800  4.416E-09
3038.000  4.421E-09
3038.200  4.208E-09
3038.400  4.438E-09
3038.600  4.415E-09
3038.800  4.249E-09
3039.000  4.463E-09
3039.200  4.446E-09
3039.400  4.444E-09
3039.600  4.532E-09
3039.800  4.726E-09
3040.000  4.713E-09
3040.200  4.681E-09
3040.400  4.716E-09
3040.600  4.748E-09
3040.800  4.773E-09
3041.000  4.767E-09
3041.200  4.671E-09
3041.400  4.612E-09
3041.600  4.331E-09
3041.800  4.191E-09
3042.000  4.532E-09
3042.200  4.538E-09
3042.400  4.354E-09
3042.600  4.365E-09
3042.800  4.474E-09
3043.000  4.483E-09
3043.200  4.483E-09
3043.400  4.482E-09
3043.600  4.481E-09
3043.800  4.548E-09
3044.000  4.667E-09
3044.200  4.703E-09
3044.400  4.693E-09
3044.600  4.652E-09
3044.800  4.742E-09
3045.000  4.790E-09
3045.200  4.815E-09
3045.400  4.815E-09
3045.600  4.617E-09
3045.800  4.712E-09
3046.000  4.758E-09
